Folder: Sintesis_Nanoparticulas_Oro/Lambda max, Extincion max y Area/pH/0.25ml 1M (pH=2.5)

Note: README.md
# Sintesis_Nanoparticulas_Oro

File: 0.26_1M.txt
"0.25_1M(3) - Dataset 195344"
"Wavelength nm."	"Abs."
200,00	2,864
202,50	2,864
205,00	4,027
207,50	3,879
210,00	0,984
212,50	2,177
215,00	2,384
217,50	0,945
220,00	1,096
222,50	1,581
225,00	1,949
227,50	1,616
230,00	1,089
232,50	0,142
235,00	1,097
237,50	3,891
240,00	3,623
242,50	2,562
245,00	2,023
247,50	0,907
250,00	1,050
252,50	1,628
255,00	0,575
257,50	-0,253
260,00	-0,472
262,50	1,963
265,00	3,280
267,50	2,122
270,00	2,401
272,50	2,050
275,00	1,688
277,50	1,042
280,00	0,102
282,50	0,046
285,00	0,127
287,50	0,168
290,00	0,178
292,50	0,167
295,00	0,165
297,50	0,176
300,00	0,179
302,50	0,180
305,00	0,179
307,50	0,179
310,00	0,179
312,50	0,178
315,00	0,176
317,50	0,175
320,00	0,174
322,50	0,172
325,00	0,171
327,50	0,170
330,00	0,169
332,50	0,168
335,00	0,168
337,50	0,167
340,00	0,166
342,50	0,165
345,00	0,164
347,50	0,164
350,00	0,164
352,50	0,163
355,00	0,163
357,50	0,162
360,00	0,162
362,50	0,163
365,00	0,163
367,50	0,163
370,00	0,164
372,50	0,164
375,00	0,164
377,50	0,163
380,00	0,163
382,50	0,162
385,00	0,162
387,50	0,162
390,00	0,162
392,50	0,162
395,00	0,161
397,50	0,161
400,00	0,161
402,50	0,160
405,00	0,160
407,50	0,160
410,00	0,160
412,50	0,159
415,00	0,159
417,50	0,159
420,00	0,158
422,50	0,158
425,00	0,157
427,50	0,157
430,00	0,156
432,50	0,156
435,00	0,156
437,50	0,155
440,00	0,155
442,50	0,154
445,00	0,154
447,50	0,153
450,00	0,152
452,50	0,152
455,00	0,151
457,50	0,151
460,00	0,150
462,50	0,150
465,00	0,150
467,50	0,149
470,00	0,148
472,50	0,148
475,00	0,147
477,50	0,147
480,00	0,146
482,50	0,146
485,00	0,147
487,50	0,147
490,00	0,148
492,50	0,150
495,00	0,151
497,50	0,153
500,00	0,156
502,50	0,158
505,00	0,161
507,50	0,164
510,00	0,167
512,50	0,171
515,00	0,174
517,50	0,177
520,00	0,180
522,50	0,183
525,00	0,186
527,50	0,188
530,00	0,191
532,50	0,193
535,00	0,196
537,50	0,198
540,00	0,200
542,50	0,202
545,00	0,204
547,50	0,205
550,00	0,207
552,50	0,208
555,00	0,209
557,50	0,210
560,00	0,210
562,50	0,211
565,00	0,211
567,50	0,211
570,00	0,211
572,50	0,211
575,00	0,211
577,50	0,211
580,00	0,211
582,50	0,210
585,00	0,209
587,50	0,208
590,00	0,207
592,50	0,206
595,00	0,205
597,50	0,204
600,00	0,203
602,50	0,202
605,00	0,201
607,50	0,199
610,00	0,198
612,50	0,196
615,00	0,195
617,50	0,194
620,00	0,192
622,50	0,191
625,00	0,190
627,50	0,189
630,00	0,187
632,50	0,186
635,00	0,185
637,50	0,183
640,00	0,182
642,50	0,181
645,00	0,179
647,50	0,178
650,00	0,177
652,50	0,176
655,00	0,175
657,50	0,174
660,00	0,173
662,50	0,172
665,00	0,171
667,50	0,170
670,00	0,169
672,50	0,167
675,00	0,166
677,50	0,165
680,00	0,165
682,50	0,164
685,00	0,163
687,50	0,162
690,00	0,161
692,50	0,160
695,00	0,160
697,50	0,159
700,00	0,159
702,50	0,158
705,00	0,157
707,50	0,156
710,00	0,156
712,50	0,155
715,00	0,154
717,50	0,154
720,00	0,153
722,50	0,153
725,00	0,152
727,50	0,152
730,00	0,151
732,50	0,151
735,00	0,150
737,50	0,150
740,00	0,149
742,50	0,149
745,00	0,148
747,50	0,148
750,00	0,148
752,50	0,147
755,00	0,146
757,50	0,146
760,00	0,146
762,50	0,145
765,00	0,145
767,50	0,145
770,00	0,145
772,50	0,144
775,00	0,143
777,50	0,143
780,00	0,143
782,50	0,143
785,00	0,143
787,50	0,142
790,00	0,142
792,50	0,141
795,00	0,141
797,50	0,141
800,00	0,141