Folder: Sintesis_Nanoparticulas_Oro/Lambda max, Extincion max y Area/pH/0.5ml e-2M (pH=4.4)

Note: README.md
# Sintesis_Nanoparticulas_Oro

File: 0.49_e-2M.txt
"0.5_e-2M(3) - RawData"
"Wavelength nm."	"Abs."
200,00	-0,465
202,50	-0,789
205,00	-0,457
207,50	0,353
210,00	6,000
212,50	-1,877
215,00	6,000
217,50	-0,027
220,00	-0,100
222,50	-0,626
225,00	-0,318
227,50	0,163
230,00	0,165
232,50	0,644
235,00	6,000
237,50	0,298
240,00	-0,188
242,50	-0,238
245,00	-0,054
247,50	-0,329
250,00	0,142
252,50	-1,414
255,00	0,046
257,50	0,057
260,00	0,334
262,50	-0,503
265,00	-0,317
267,50	-0,105
270,00	-0,016
272,50	6,000
275,00	6,000
277,50	0,778
280,00	0,022
282,50	0,047
285,00	0,251
287,50	0,261
290,00	0,270
292,50	0,266
295,00	0,250
297,50	0,248
300,00	0,245
302,50	0,247
305,00	0,245
307,50	0,241
310,00	0,237
312,50	0,235
315,00	0,233
317,50	0,230
320,00	0,227
322,50	0,223
325,00	0,221
327,50	0,221
330,00	0,220
332,50	0,219
335,00	0,218
337,50	0,216
340,00	0,215
342,50	0,215
345,00	0,213
347,50	0,213
350,00	0,213
352,50	0,212
355,00	0,212
357,50	0,210
360,00	0,210
362,50	0,210
365,00	0,209
367,50	0,207
370,00	0,208
372,50	0,206
375,00	0,206
377,50	0,205
380,00	0,203
382,50	0,203
385,00	0,201
387,50	0,200
390,00	0,198
392,50	0,197
395,00	0,196
397,50	0,196
400,00	0,195
402,50	0,194
405,00	0,193
407,50	0,191
410,00	0,191
412,50	0,190
415,00	0,189
417,50	0,189
420,00	0,188
422,50	0,188
425,00	0,187
427,50	0,187
430,00	0,187
432,50	0,187
435,00	0,187
437,50	0,186
440,00	0,187
442,50	0,187
445,00	0,187
447,50	0,188
450,00	0,188
452,50	0,189
455,00	0,190
457,50	0,191
460,00	0,192
462,50	0,194
465,00	0,196
467,50	0,198
470,00	0,200
472,50	0,203
475,00	0,206
477,50	0,209
480,00	0,214
482,50	0,218
485,00	0,224
487,50	0,230
490,00	0,237
492,50	0,244
495,00	0,252
497,50	0,261
500,00	0,269
502,50	0,278
505,00	0,286
507,50	0,294
510,00	0,301
512,50	0,307
515,00	0,311
517,50	0,314
520,00	0,315
522,50	0,314
525,00	0,310
527,50	0,305
530,00	0,298
532,50	0,290
535,00	0,280
537,50	0,270
540,00	0,257
542,50	0,245
545,00	0,232
547,50	0,220
550,00	0,207
552,50	0,195
555,00	0,184
557,50	0,173
560,00	0,162
562,50	0,152
565,00	0,142
567,50	0,133
570,00	0,125
572,50	0,117
575,00	0,110
577,50	0,104
580,00	0,098
582,50	0,093
585,00	0,088
587,50	0,082
590,00	0,078
592,50	0,074
595,00	0,070
597,50	0,067
600,00	0,064
602,50	0,061
605,00	0,058
607,50	0,056
610,00	0,053
612,50	0,051
615,00	0,049
617,50	0,047
620,00	0,045
622,50	0,044
625,00	0,042
627,50	0,041
630,00	0,040
632,50	0,038
635,00	0,037
637,50	0,036
640,00	0,035
642,50	0,034
645,00	0,033
647,50	0,032
650,00	0,031
652,50	0,031
655,00	0,030
657,50	0,029
660,00	0,029
662,50	0,028
665,00	0,027
667,50	0,027
670,00	0,026
672,50	0,026
675,00	0,025
677,50	0,025
680,00	0,024
682,50	0,024
685,00	0,024
687,50	0,023
690,00	0,022
692,50	0,023
695,00	0,022
697,50	0,022
700,00	0,022
702,50	0,021
705,00	0,021
707,50	0,021
710,00	0,020
712,50	0,020
715,00	0,020
717,50	0,021
720,00	0,020
722,50	0,020
725,00	0,019
727,50	0,020
730,00	0,018
732,50	0,019
735,00	0,018
737,50	0,018
740,00	0,018
742,50	0,018
745,00	0,018
747,50	0,018
750,00	0,018
752,50	0,017
755,00	0,017
757,50	0,017
760,00	0,017
762,50	0,017
765,00	0,016
767,50	0,016
770,00	0,017
772,50	0,016
775,00	0,016
777,50	0,016
780,00	0,016
782,50	0,016
785,00	0,015
787,50	0,015
790,00	0,014
792,50	0,014
795,00	0,015
797,50	0,015
800,00	0,014

File: 0.51e-2M.txt
"0.5_e-2M(3) - Dataset 183642"
"Wavelength nm."	"Abs."
200,00	0,829
202,50	0,829
205,00	1,002
207,50	1,957
210,00	3,229
212,50	2,606
215,00	2,051
217,50	0,477
220,00	0,626
222,50	1,383
225,00	0,487
227,50	0,733
230,00	-0,173
232,50	0,710
235,00	2,089
237,50	1,096
240,00	1,145
242,50	1,535
245,00	0,693
247,50	-0,290
250,00	1,097
252,50	1,397
255,00	-0,019
257,50	-0,025
260,00	0,234
262,50	2,277
265,00	1,954
267,50	1,230
270,00	1,840
272,50	1,803
275,00	2,903
277,50	1,096
280,00	0,044
282,50	0,135
285,00	0,242
287,50	0,251
290,00	0,273
292,50	0,266
295,00	0,246
297,50	0,248
300,00	0,248
302,50	0,245
305,00	0,243
307,50	0,240
310,00	0,237
312,50	0,234
315,00	0,231
317,50	0,229
320,00	0,227
322,50	0,225
325,00	0,223
327,50	0,221
330,00	0,219
332,50	0,218
335,00	0,217
337,50	0,216
340,00	0,215
342,50	0,214
345,00	0,213
347,50	0,213
350,00	0,213
352,50	0,212
355,00	0,212
357,50	0,211
360,00	0,210
362,50	0,210
365,00	0,209
367,50	0,208
370,00	0,207
372,50	0,206
375,00	0,206
377,50	0,205
380,00	0,204
382,50	0,202
385,00	0,201
387,50	0,200
390,00	0,199
392,50	0,198
395,00	0,197
397,50	0,196
400,00	0,195
402,50	0,194
405,00	0,193
407,50	0,192
410,00	0,191
412,50	0,190
415,00	0,190
417,50	0,189
420,00	0,188
422,50	0,188
425,00	0,188
427,50	0,187
430,00	0,187
432,50	0,187
435,00	0,187
437,50	0,187
440,00	0,187
442,50	0,187
445,00	0,187
447,50	0,188
450,00	0,188
452,50	0,189
455,00	0,190
457,50	0,191
460,00	0,192
462,50	0,194
465,00	0,196
467,50	0,198
470,00	0,200
472,50	0,203
475,00	0,206
477,50	0,210
480,00	0,214
482,50	0,218
485,00	0,224
487,50	0,230
490,00	0,237
492,50	0,244
495,00	0,252
497,50	0,261
500,00	0,269
502,50	0,278
505,00	0,286
507,50	0,294
510,00	0,301
512,50	0,307
515,00	0,311
517,50	0,314
520,00	0,315
522,50	0,314
525,00	0,310
527,50	0,305
530,00	0,298
532,50	0,290
535,00	0,280
537,50	0,269
540,00	0,258
542,50	0,245
545,00	0,232
547,50	0,220
550,00	0,208
552,50	0,195
555,00	0,184
557,50	0,173
560,00	0,162
562,50	0,152
565,00	0,142
567,50	0,133
570,00	0,125
572,50	0,118
575,00	0,111
577,50	0,104
580,00	0,098
582,50	0,092
585,00	0,087
587,50	0,083
590,00	0,078
592,50	0,074
595,00	0,070
597,50	0,067
600,00	0,064
602,50	0,061
605,00	0,058
607,50	0,056
610,00	0,053
612,50	0,051
615,00	0,049
617,50	0,047
620,00	0,045
622,50	0,044
625,00	0,042
627,50	0,041
630,00	0,040
632,50	0,038
635,00	0,037
637,50	0,036
640,00	0,035
642,50	0,034
645,00	0,033
647,50	0,032
650,00	0,031
652,50	0,031
655,00	0,030
657,50	0,029
660,00	0,029
662,50	0,028
665,00	0,027
667,50	0,027
670,00	0,026
672,50	0,026
675,00	0,025
677,50	0,025
680,00	0,024
682,50	0,024
685,00	0,024
687,50	0,023
690,00	0,023
692,50	0,022
695,00	0,022
697,50	0,022
700,00	0,022
702,50	0,021
705,00	0,021
707,50	0,021
710,00	0,020
712,50	0,020
715,00	0,020
717,50	0,020
720,00	0,020
722,50	0,020
725,00	0,019
727,50	0,019
730,00	0,019
732,50	0,019
735,00	0,019
737,50	0,018
740,00	0,018
742,50	0,018
745,00	0,018
747,50	0,018
750,00	0,018
752,50	0,017
755,00	0,017
757,50	0,017
760,00	0,017
762,50	0,017
765,00	0,017
767,50	0,016
770,00	0,016
772,50	0,016
775,00	0,016
777,50	0,016
780,00	0,016
782,50	0,015
785,00	0,015
787,50	0,015
790,00	0,015
792,50	0,015
795,00	0,015
797,50	0,015
800,00	0,015