Folder: Sintesis_Nanoparticulas_Oro/Lambda max, Extincion max y Area/pH/0.5ml e-1M (pH=3.9)

Note: Lambda max, Extincion max y Area/pH/0.5ml e-1M (pH=3.9)/ambos.txt
molaridad,lambda máx,absorbancia,área
3.9,527,0.369,17.152
3.9,528,0.328,16.164
3.9,527,0.346,15.702

Note: README.md
# Sintesis_Nanoparticulas_Oro

File: 0.51_e-1M.txt
"0.5_e-1M(3) - Dataset 185729"
"Wavelength nm."	"Abs."
200,00	0,863
202,50	0,863
205,00	0,893
207,50	3,669
210,00	3,251
212,50	3,174
215,00	2,744
217,50	1,301
220,00	1,954
222,50	3,434
225,00	2,568
227,50	1,436
230,00	0,647
232,50	-0,159
235,00	1,570
237,50	1,480
240,00	1,610
242,50	1,962
245,00	1,709
247,50	1,525
250,00	2,206
252,50	3,149
255,00	1,802
257,50	0,341
260,00	0,131
262,50	2,112
265,00	2,575
267,50	1,086
270,00	0,588
272,50	0,908
275,00	3,365
277,50	2,752
280,00	0,762
282,50	0,102
285,00	0,177
287,50	0,251
290,00	0,266
292,50	0,262
295,00	0,240
297,50	0,244
300,00	0,251
302,50	0,249
305,00	0,246
307,50	0,243
310,00	0,241
312,50	0,238
315,00	0,234
317,50	0,231
320,00	0,228
322,50	0,225
325,00	0,223
327,50	0,221
330,00	0,219
332,50	0,216
335,00	0,215
337,50	0,213
340,00	0,212
342,50	0,211
345,00	0,210
347,50	0,210
350,00	0,209
352,50	0,209
355,00	0,209
357,50	0,209
360,00	0,209
362,50	0,208
365,00	0,208
367,50	0,207
370,00	0,206
372,50	0,206
375,00	0,205
377,50	0,205
380,00	0,203
382,50	0,202
385,00	0,201
387,50	0,200
390,00	0,199
392,50	0,198
395,00	0,197
397,50	0,196
400,00	0,195
402,50	0,194
405,00	0,193
407,50	0,192
410,00	0,191
412,50	0,189
415,00	0,189
417,50	0,188
420,00	0,187
422,50	0,187
425,00	0,186
427,50	0,186
430,00	0,185
432,50	0,184
435,00	0,184
437,50	0,184
440,00	0,183
442,50	0,183
445,00	0,183
447,50	0,183
450,00	0,183
452,50	0,184
455,00	0,184
457,50	0,185
460,00	0,185
462,50	0,186
465,00	0,188
467,50	0,189
470,00	0,191
472,50	0,193
475,00	0,195
477,50	0,198
480,00	0,201
482,50	0,205
485,00	0,210
487,50	0,216
490,00	0,222
492,50	0,230
495,00	0,238
497,50	0,247
500,00	0,257
502,50	0,267
505,00	0,276
507,50	0,286
510,00	0,295
512,50	0,304
515,00	0,311
517,50	0,317
520,00	0,322
522,50	0,326
525,00	0,328
527,50	0,328
530,00	0,328
532,50	0,326
535,00	0,323
537,50	0,319
540,00	0,314
542,50	0,308
545,00	0,301
547,50	0,294
550,00	0,286
552,50	0,277
555,00	0,268
557,50	0,259
560,00	0,249
562,50	0,239
565,00	0,229
567,50	0,219
570,00	0,209
572,50	0,200
575,00	0,191
577,50	0,182
580,00	0,174
582,50	0,165
585,00	0,157
587,50	0,150
590,00	0,142
592,50	0,135
595,00	0,129
597,50	0,123
600,00	0,117
602,50	0,112
605,00	0,107
607,50	0,102
610,00	0,097
612,50	0,093
615,00	0,089
617,50	0,085
620,00	0,081
622,50	0,078
625,00	0,075
627,50	0,072
630,00	0,069
632,50	0,067
635,00	0,064
637,50	0,062
640,00	0,060
642,50	0,058
645,00	0,056
647,50	0,054
650,00	0,052
652,50	0,050
655,00	0,049
657,50	0,047
660,00	0,046
662,50	0,045
665,00	0,043
667,50	0,043
670,00	0,041
672,50	0,040
675,00	0,039
677,50	0,038
680,00	0,037
682,50	0,037
685,00	0,036
687,50	0,035
690,00	0,034
692,50	0,033
695,00	0,032
697,50	0,032
700,00	0,031
702,50	0,031
705,00	0,030
707,50	0,030
710,00	0,029
712,50	0,029
715,00	0,028
717,50	0,027
720,00	0,027
722,50	0,027
725,00	0,026
727,50	0,026
730,00	0,025
732,50	0,025
735,00	0,025
737,50	0,024
740,00	0,024
742,50	0,023
745,00	0,023
747,50	0,023
750,00	0,023
752,50	0,022
755,00	0,022
757,50	0,022
760,00	0,021
762,50	0,021
765,00	0,021
767,50	0,021
770,00	0,020
772,50	0,020
775,00	0,020
777,50	0,019
780,00	0,019
782,50	0,019
785,00	0,018
787,50	0,018
790,00	0,018
792,50	0,018
795,00	0,018
797,50	0,018
800,00	0,018