Folder: Sintesis_Nanoparticulas_Oro/Lambda max, Extincion max y Area/pH/1ml e-1M (pH=3.6)

Note: README.md
# Sintesis_Nanoparticulas_Oro

File: 1_e-1M - copia.txt
"1_e-1M - Dataset 190611"
"Wavelength nm."	"Abs."
200,00	2,334
202,50	2,334
205,00	2,528
207,50	0,501
210,00	2,615
212,50	2,372
215,00	0,995
217,50	1,099
220,00	1,146
222,50	1,286
225,00	1,094
227,50	2,030
230,00	2,990
232,50	0,872
235,00	1,082
237,50	2,674
240,00	2,245
242,50	1,900
245,00	0,872
247,50	-0,365
250,00	1,256
252,50	0,950
255,00	1,231
257,50	2,041
260,00	-0,160
262,50	1,087
265,00	1,739
267,50	0,915
270,00	1,507
272,50	1,694
275,00	2,614
277,50	1,764
280,00	0,601
282,50	-0,233
285,00	0,244
287,50	0,278
290,00	0,302
292,50	0,288
295,00	0,270
297,50	0,285
300,00	0,291
302,50	0,289
305,00	0,285
307,50	0,282
310,00	0,280
312,50	0,276
315,00	0,272
317,50	0,269
320,00	0,266
322,50	0,262
325,00	0,259
327,50	0,256
330,00	0,253
332,50	0,251
335,00	0,248
337,50	0,246
340,00	0,244
342,50	0,242
345,00	0,241
347,50	0,240
350,00	0,240
352,50	0,239
355,00	0,239
357,50	0,238
360,00	0,237
362,50	0,237
365,00	0,236
367,50	0,235
370,00	0,234
372,50	0,233
375,00	0,233
377,50	0,233
380,00	0,231
382,50	0,230
385,00	0,229
387,50	0,228
390,00	0,226
392,50	0,225
395,00	0,224
397,50	0,223
400,00	0,222
402,50	0,220
405,00	0,219
407,50	0,218
410,00	0,217
412,50	0,216
415,00	0,215
417,50	0,214
420,00	0,213
422,50	0,212
425,00	0,211
427,50	0,210
430,00	0,210
432,50	0,209
435,00	0,209
437,50	0,208
440,00	0,207
442,50	0,207
445,00	0,206
447,50	0,206
450,00	0,205
452,50	0,205
455,00	0,205
457,50	0,206
460,00	0,206
462,50	0,206
465,00	0,207
467,50	0,207
470,00	0,208
472,50	0,209
475,00	0,211
477,50	0,213
480,00	0,215
482,50	0,218
485,00	0,222
487,50	0,226
490,00	0,231
492,50	0,238
495,00	0,244
497,50	0,252
500,00	0,261
502,50	0,270
505,00	0,279
507,50	0,288
510,00	0,298
512,50	0,307
515,00	0,316
517,50	0,325
520,00	0,332
522,50	0,339
525,00	0,344
527,50	0,348
530,00	0,350
532,50	0,352
535,00	0,352
537,50	0,351
540,00	0,349
542,50	0,345
545,00	0,341
547,50	0,337
550,00	0,332
552,50	0,326
555,00	0,320
557,50	0,313
560,00	0,306
562,50	0,300
565,00	0,293
567,50	0,286
570,00	0,279
572,50	0,272
575,00	0,266
577,50	0,260
580,00	0,255
582,50	0,249
585,00	0,244
587,50	0,238
590,00	0,233
592,50	0,228
595,00	0,224
597,50	0,220
600,00	0,216
602,50	0,212
605,00	0,208
607,50	0,205
610,00	0,201
612,50	0,198
615,00	0,195
617,50	0,192
620,00	0,189
622,50	0,187
625,00	0,184
627,50	0,181
630,00	0,179
632,50	0,176
635,00	0,174
637,50	0,171
640,00	0,169
642,50	0,166
645,00	0,164
647,50	0,161
650,00	0,159
652,50	0,156
655,00	0,154
657,50	0,152
660,00	0,149
662,50	0,147
665,00	0,144
667,50	0,142
670,00	0,139
672,50	0,136
675,00	0,134
677,50	0,132
680,00	0,129
682,50	0,127
685,00	0,125
687,50	0,122
690,00	0,120
692,50	0,117
695,00	0,115
697,50	0,113
700,00	0,110
702,50	0,108
705,00	0,106
707,50	0,103
710,00	0,101
712,50	0,099
715,00	0,096
717,50	0,094
720,00	0,092
722,50	0,090
725,00	0,088
727,50	0,086
730,00	0,084
732,50	0,082
735,00	0,080
737,50	0,078
740,00	0,076
742,50	0,075
745,00	0,073
747,50	0,071
750,00	0,070
752,50	0,068
755,00	0,067
757,50	0,065
760,00	0,064
762,50	0,062
765,00	0,061
767,50	0,060
770,00	0,058
772,50	0,057
775,00	0,055
777,50	0,054
780,00	0,053
782,50	0,052
785,00	0,051
787,50	0,051
790,00	0,050
792,50	0,048
795,00	0,048
797,50	0,047
800,00	0,047