Folder: Sintesis_Nanoparticulas_Oro/Espectro Uv-Vis/pH/0.25ml 1M (pH=2.5)

Note: Espectro Uv-Vis/pH/0.25ml 1M (pH=2.5)/ambos.txt
molaridad,lambda máx,absorbancia,área
2.5,590,0.159,5.982
2.5,608,0.178,8.503
2.5,573.5,0.211,8.805

Note: README.md
# Sintesis_Nanoparticulas_Oro

File: 0.24_1M.txt
"0.25_1M - Dataset 182155"
"Wavelength nm."	"Abs."
200,00	-0,156
202,50	-0,156
205,00	0,184
207,50	2,323
210,00	4,426
212,50	2,783
215,00	1,421
217,50	1,790
220,00	1,393
222,50	3,159
225,00	2,991
227,50	0,789
230,00	1,205
232,50	1,001
235,00	1,386
237,50	2,143
240,00	1,858
242,50	1,913
245,00	2,878
247,50	1,857
250,00	1,719
252,50	1,973
255,00	-0,227
257,50	0,584
260,00	0,402
262,50	1,311
265,00	2,560
267,50	1,386
270,00	0,878
272,50	1,933
275,00	3,306
277,50	1,622
280,00	-0,133
282,50	0,158
285,00	0,114
287,50	0,134
290,00	0,141
292,50	0,135
295,00	0,132
297,50	0,137
300,00	0,139
302,50	0,139
305,00	0,138
307,50	0,138
310,00	0,138
312,50	0,137
315,00	0,135
317,50	0,134
320,00	0,134
322,50	0,132
325,00	0,131
327,50	0,131
330,00	0,130
332,50	0,130
335,00	0,129
337,50	0,129
340,00	0,129
342,50	0,128
345,00	0,128
347,50	0,128
350,00	0,128
352,50	0,128
355,00	0,128
357,50	0,128
360,00	0,128
362,50	0,128
365,00	0,128
367,50	0,129
370,00	0,130
372,50	0,130
375,00	0,130
377,50	0,130
380,00	0,129
382,50	0,129
385,00	0,129
387,50	0,129
390,00	0,129
392,50	0,129
395,00	0,129
397,50	0,129
400,00	0,129
402,50	0,128
405,00	0,128
407,50	0,128
410,00	0,128
412,50	0,127
415,00	0,127
417,50	0,127
420,00	0,127
422,50	0,126
425,00	0,126
427,50	0,125
430,00	0,125
432,50	0,125
435,00	0,125
437,50	0,124
440,00	0,124
442,50	0,123
445,00	0,123
447,50	0,123
450,00	0,122
452,50	0,122
455,00	0,121
457,50	0,121
460,00	0,120
462,50	0,120
465,00	0,119
467,50	0,119
470,00	0,118
472,50	0,118
475,00	0,117
477,50	0,117
480,00	0,117
482,50	0,117
485,00	0,117
487,50	0,117
490,00	0,117
492,50	0,118
495,00	0,119
497,50	0,120
500,00	0,122
502,50	0,124
505,00	0,125
507,50	0,127
510,00	0,129
512,50	0,131
515,00	0,133
517,50	0,135
520,00	0,137
522,50	0,139
525,00	0,140
527,50	0,142
530,00	0,143
532,50	0,145
535,00	0,146
537,50	0,147
540,00	0,148
542,50	0,149
545,00	0,150
547,50	0,151
550,00	0,152
552,50	0,152
555,00	0,153
557,50	0,154
560,00	0,155
562,50	0,155
565,00	0,156
567,50	0,156
570,00	0,157
572,50	0,157
575,00	0,157
577,50	0,158
580,00	0,158
582,50	0,158
585,00	0,159
587,50	0,159
590,00	0,159
592,50	0,159
595,00	0,159
597,50	0,159
600,00	0,158
602,50	0,158
605,00	0,158
607,50	0,158
610,00	0,158
612,50	0,157
615,00	0,157
617,50	0,157
620,00	0,157
622,50	0,156
625,00	0,156
627,50	0,155
630,00	0,155
632,50	0,154
635,00	0,154
637,50	0,153
640,00	0,153
642,50	0,152
645,00	0,152
647,50	0,151
650,00	0,151
652,50	0,150
655,00	0,150
657,50	0,149
660,00	0,149
662,50	0,149
665,00	0,148
667,50	0,147
670,00	0,147
672,50	0,146
675,00	0,146
677,50	0,145
680,00	0,145
682,50	0,145
685,00	0,144
687,50	0,144
690,00	0,143
692,50	0,142
695,00	0,142
697,50	0,142
700,00	0,142
702,50	0,141
705,00	0,141
707,50	0,140
710,00	0,140
712,50	0,140
715,00	0,140
717,50	0,139
720,00	0,139
722,50	0,138
725,00	0,138
727,50	0,138
730,00	0,138
732,50	0,138
735,00	0,137
737,50	0,137
740,00	0,137
742,50	0,136
745,00	0,136
747,50	0,136
750,00	0,136
752,50	0,136
755,00	0,135
757,50	0,135
760,00	0,135
762,50	0,135
765,00	0,134
767,50	0,134
770,00	0,134
772,50	0,133
775,00	0,133
777,50	0,133
780,00	0,133
782,50	0,132
785,00	0,132
787,50	0,132
790,00	0,132
792,50	0,132
795,00	0,132
797,50	0,132
800,00	0,132

File: 0.25_1M.txt
"0.25_1M(2) - Dataset 191141"
"Wavelength nm."	"Abs."
200,00	0,232
202,50	0,232
205,00	0,049
207,50	1,304
210,00	3,519
212,50	2,197
215,00	0,672
217,50	0,422
220,00	-0,286
222,50	1,670
225,00	2,207
227,50	1,325
230,00	0,787
232,50	0,331
235,00	1,413
237,50	2,201
240,00	3,127
242,50	2,256
245,00	2,436
247,50	2,133
250,00	1,411
252,50	1,173
255,00	-0,047
257,50	1,595
260,00	1,232
262,50	1,460
265,00	2,313
267,50	1,942
270,00	2,443
272,50	1,048
275,00	2,174
277,50	1,826
280,00	0,529
282,50	0,132
285,00	0,067
287,50	0,139
290,00	0,151
292,50	0,143
295,00	0,132
297,50	0,143
300,00	0,152
302,50	0,153
305,00	0,152
307,50	0,152
310,00	0,152
312,50	0,151
315,00	0,149
317,50	0,148
320,00	0,147
322,50	0,146
325,00	0,145
327,50	0,144
330,00	0,143
332,50	0,142
335,00	0,142
337,50	0,141
340,00	0,140
342,50	0,140
345,00	0,139
347,50	0,139
350,00	0,139
352,50	0,138
355,00	0,138
357,50	0,138
360,00	0,138
362,50	0,138
365,00	0,138
367,50	0,138
370,00	0,138
372,50	0,138
375,00	0,138
377,50	0,138
380,00	0,138
382,50	0,138
385,00	0,138
387,50	0,137
390,00	0,137
392,50	0,137
395,00	0,137
397,50	0,137
400,00	0,137
402,50	0,136
405,00	0,136
407,50	0,136
410,00	0,136
412,50	0,135
415,00	0,135
417,50	0,135
420,00	0,134
422,50	0,134
425,00	0,133
427,50	0,133
430,00	0,133
432,50	0,133
435,00	0,133
437,50	0,132
440,00	0,132
442,50	0,131
445,00	0,131
447,50	0,131
450,00	0,130
452,50	0,130
455,00	0,129
457,50	0,129
460,00	0,129
462,50	0,128
465,00	0,128
467,50	0,127
470,00	0,127
472,50	0,126
475,00	0,125
477,50	0,125
480,00	0,125
482,50	0,124
485,00	0,125
487,50	0,125
490,00	0,126
492,50	0,126
495,00	0,127
497,50	0,129
500,00	0,131
502,50	0,133
505,00	0,135
507,50	0,137
510,00	0,140
512,50	0,142
515,00	0,144
517,50	0,147
520,00	0,149
522,50	0,151
525,00	0,153
527,50	0,155
530,00	0,157
532,50	0,158
535,00	0,160
537,50	0,161
540,00	0,162
542,50	0,164
545,00	0,165
547,50	0,166
550,00	0,167
552,50	0,168
555,00	0,168
557,50	0,169
560,00	0,170
562,50	0,171
565,00	0,172
567,50	0,172
570,00	0,173
572,50	0,174
575,00	0,174
577,50	0,175
580,00	0,175
582,50	0,175
585,00	0,176
587,50	0,176
590,00	0,177
592,50	0,177
595,00	0,177
597,50	0,177
600,00	0,177
602,50	0,177
605,00	0,178
607,50	0,178
610,00	0,178
612,50	0,177
615,00	0,177
617,50	0,177
620,00	0,177
622,50	0,177
625,00	0,177
627,50	0,176
630,00	0,176
632,50	0,176
635,00	0,175
637,50	0,175
640,00	0,174
642,50	0,174
645,00	0,173
647,50	0,173
650,00	0,172
652,50	0,172
655,00	0,171
657,50	0,171
660,00	0,170
662,50	0,170
665,00	0,168
667,50	0,167
670,00	0,167
672,50	0,166
675,00	0,165
677,50	0,164
680,00	0,164
682,50	0,163
685,00	0,162
687,50	0,161
690,00	0,160
692,50	0,160
695,00	0,159
697,50	0,158
700,00	0,158
702,50	0,157
705,00	0,156
707,50	0,155
710,00	0,154
712,50	0,154
715,00	0,153
717,50	0,152
720,00	0,152
722,50	0,151
725,00	0,150
727,50	0,150
730,00	0,149
732,50	0,148
735,00	0,148
737,50	0,147
740,00	0,146
742,50	0,146
745,00	0,145
747,50	0,144
750,00	0,144
752,50	0,143
755,00	0,142
757,50	0,142
760,00	0,141
762,50	0,141
765,00	0,140
767,50	0,139
770,00	0,139
772,50	0,138
775,00	0,138
777,50	0,137
780,00	0,136
782,50	0,136
785,00	0,135
787,50	0,135
790,00	0,134
792,50	0,134
795,00	0,133
797,50	0,133
800,00	0,133