Folder: Sintesis_Nanoparticulas_Oro/Espectro Uv-Vis/pH/0.5ml e-2M (pH=4.4)

Note: Espectro Uv-Vis/pH/0.5ml e-2M (pH=4.4)/ambos.txt
molaridad,lambda máx,absorbancia,área
4.4,519.5,0.304,12.435
4.4,519.5,0.325,13.321
4.4,519.5,0.315,13.040

Note: README.md
# Sintesis_Nanoparticulas_Oro

File: 0.5e-2M.txt
"0.5e-2M(2) - Dataset 180943"
"Wavelength nm."	"Abs."
200,00	1,690
202,50	1,690
205,00	2,499
207,50	3,049
210,00	1,739
212,50	2,652
215,00	3,151
217,50	2,875
220,00	2,673
222,50	2,695
225,00	3,480
227,50	2,275
230,00	1,098
232,50	0,919
235,00	0,689
237,50	2,361
240,00	1,441
242,50	0,935
245,00	1,692
247,50	0,272
250,00	1,050
252,50	2,527
255,00	1,584
257,50	0,573
260,00	0,319
262,50	2,323
265,00	2,661
267,50	0,625
270,00	1,415
272,50	1,189
275,00	2,053
277,50	2,470
280,00	0,954
282,50	-0,185
285,00	0,233
287,50	0,275
290,00	0,277
292,50	0,280
295,00	0,265
297,50	0,257
300,00	0,259
302,50	0,255
305,00	0,251
307,50	0,249
310,00	0,246
312,50	0,242
315,00	0,239
317,50	0,237
320,00	0,235
322,50	0,232
325,00	0,230
327,50	0,229
330,00	0,227
332,50	0,225
335,00	0,224
337,50	0,222
340,00	0,222
342,50	0,221
345,00	0,220
347,50	0,219
350,00	0,219
352,50	0,219
355,00	0,218
357,50	0,217
360,00	0,217
362,50	0,216
365,00	0,215
367,50	0,214
370,00	0,213
372,50	0,212
375,00	0,212
377,50	0,211
380,00	0,209
382,50	0,208
385,00	0,207
387,50	0,206
390,00	0,205
392,50	0,204
395,00	0,202
397,50	0,201
400,00	0,200
402,50	0,199
405,00	0,198
407,50	0,198
410,00	0,197
412,50	0,196
415,00	0,195
417,50	0,195
420,00	0,194
422,50	0,194
425,00	0,193
427,50	0,193
430,00	0,193
432,50	0,193
435,00	0,193
437,50	0,193
440,00	0,193
442,50	0,193
445,00	0,193
447,50	0,194
450,00	0,194
452,50	0,195
455,00	0,196
457,50	0,197
460,00	0,199
462,50	0,200
465,00	0,202
467,50	0,205
470,00	0,207
472,50	0,210
475,00	0,213
477,50	0,217
480,00	0,222
482,50	0,227
485,00	0,232
487,50	0,239
490,00	0,246
492,50	0,254
495,00	0,262
497,50	0,271
500,00	0,280
502,50	0,288
505,00	0,297
507,50	0,305
510,00	0,311
512,50	0,317
515,00	0,322
517,50	0,324
520,00	0,325
522,50	0,323
525,00	0,320
527,50	0,314
530,00	0,307
532,50	0,298
535,00	0,287
537,50	0,276
540,00	0,264
542,50	0,250
545,00	0,237
547,50	0,224
550,00	0,212
552,50	0,199
555,00	0,187
557,50	0,175
560,00	0,165
562,50	0,154
565,00	0,144
567,50	0,135
570,00	0,126
572,50	0,119
575,00	0,112
577,50	0,105
580,00	0,099
582,50	0,094
585,00	0,088
587,50	0,083
590,00	0,079
592,50	0,075
595,00	0,071
597,50	0,068
600,00	0,064
602,50	0,061
605,00	0,059
607,50	0,056
610,00	0,054
612,50	0,051
615,00	0,049
617,50	0,048
620,00	0,046
622,50	0,044
625,00	0,042
627,50	0,041
630,00	0,040
632,50	0,038
635,00	0,037
637,50	0,036
640,00	0,035
642,50	0,034
645,00	0,033
647,50	0,032
650,00	0,031
652,50	0,030
655,00	0,029
657,50	0,029
660,00	0,028
662,50	0,027
665,00	0,027
667,50	0,026
670,00	0,026
672,50	0,025
675,00	0,025
677,50	0,024
680,00	0,024
682,50	0,023
685,00	0,023
687,50	0,022
690,00	0,022
692,50	0,022
695,00	0,021
697,50	0,021
700,00	0,021
702,50	0,020
705,00	0,020
707,50	0,019
710,00	0,019
712,50	0,019
715,00	0,019
717,50	0,018
720,00	0,018
722,50	0,018
725,00	0,017
727,50	0,017
730,00	0,017
732,50	0,017
735,00	0,016
737,50	0,016
740,00	0,016
742,50	0,015
745,00	0,015
747,50	0,015
750,00	0,015
752,50	0,015
755,00	0,014
757,50	0,014
760,00	0,014
762,50	0,014
765,00	0,014
767,50	0,014
770,00	0,013
772,50	0,013
775,00	0,013
777,50	0,012
780,00	0,012
782,50	0,012
785,00	0,012
787,50	0,012
790,00	0,011
792,50	0,011
795,00	0,011
797,50	0,011
800,00	0,011