Folder: Sintesis_Nanoparticulas_Oro/Espectro Uv-Vis/citrato/0.25

Note: README.md
# Sintesis_Nanoparticulas_Oro

File: 0.26.txt
"0.25 - Dataset 200956"
"Wavelength nm."	"Abs."
200,00	2,711
202,50	2,711
205,00	4,018
207,50	3,541
210,00	3,186
212,50	4,483
215,00	2,441
217,50	1,374
220,00	2,522
222,50	2,599
225,00	2,341
227,50	1,635
230,00	0,662
232,50	2,262
235,00	1,328
237,50	0,289
240,00	0,872
242,50	0,598
245,00	0,764
247,50	1,972
250,00	1,001
252,50	0,343
255,00	1,697
257,50	1,541
260,00	0,426
262,50	2,141
265,00	1,569
267,50	1,020
270,00	2,288
272,50	1,080
275,00	1,096
277,50	1,028
280,00	0,476
282,50	0,289
285,00	0,303
287,50	0,282
290,00	0,336
292,50	0,315
295,00	0,266
297,50	0,269
300,00	0,271
302,50	0,270
305,00	0,270
307,50	0,269
310,00	0,269
312,50	0,268
315,00	0,266
317,50	0,264
320,00	0,263
322,50	0,261
325,00	0,259
327,50	0,257
330,00	0,255
332,50	0,254
335,00	0,252
337,50	0,250
340,00	0,248
342,50	0,247
345,00	0,246
347,50	0,245
350,00	0,244
352,50	0,243
355,00	0,243
357,50	0,243
360,00	0,243
362,50	0,242
365,00	0,242
367,50	0,242
370,00	0,242
372,50	0,242
375,00	0,242
377,50	0,242
380,00	0,242
382,50	0,241
385,00	0,241
387,50	0,240
390,00	0,239
392,50	0,239
395,00	0,238
397,50	0,237
400,00	0,236
402,50	0,235
405,00	0,235
407,50	0,234
410,00	0,233
412,50	0,232
415,00	0,231
417,50	0,230
420,00	0,229
422,50	0,228
425,00	0,227
427,50	0,226
430,00	0,226
432,50	0,225
435,00	0,224
437,50	0,223
440,00	0,222
442,50	0,221
445,00	0,220
447,50	0,220
450,00	0,219
452,50	0,218
455,00	0,217
457,50	0,217
460,00	0,216
462,50	0,216
465,00	0,216
467,50	0,215
470,00	0,215
472,50	0,215
475,00	0,216
477,50	0,216
480,00	0,217
482,50	0,219
485,00	0,221
487,50	0,224
490,00	0,228
492,50	0,233
495,00	0,239
497,50	0,246
500,00	0,255
502,50	0,263
505,00	0,273
507,50	0,283
510,00	0,294
512,50	0,304
515,00	0,315
517,50	0,326
520,00	0,336
522,50	0,346
525,00	0,354
527,50	0,361
530,00	0,368
532,50	0,373
535,00	0,378
537,50	0,381
540,00	0,383
542,50	0,385
545,00	0,385
547,50	0,385
550,00	0,384
552,50	0,382
555,00	0,381
557,50	0,379
560,00	0,377
562,50	0,374
565,00	0,371
567,50	0,369
570,00	0,365
572,50	0,362
575,00	0,359
577,50	0,355
580,00	0,351
582,50	0,347
585,00	0,343
587,50	0,338
590,00	0,333
592,50	0,328
595,00	0,323
597,50	0,317
600,00	0,312
602,50	0,306
605,00	0,300
607,50	0,294
610,00	0,288
612,50	0,282
615,00	0,276
617,50	0,269
620,00	0,263
622,50	0,257
625,00	0,251
627,50	0,245
630,00	0,239
632,50	0,233
635,00	0,227
637,50	0,221
640,00	0,216
642,50	0,210
645,00	0,205
647,50	0,199
650,00	0,194
652,50	0,189
655,00	0,184
657,50	0,179
660,00	0,175
662,50	0,171
665,00	0,166
667,50	0,162
670,00	0,158
672,50	0,154
675,00	0,150
677,50	0,147
680,00	0,143
682,50	0,140
685,00	0,136
687,50	0,133
690,00	0,130
692,50	0,127
695,00	0,124
697,50	0,121
700,00	0,119
702,50	0,116
705,00	0,114
707,50	0,111
710,00	0,109
712,50	0,107
715,00	0,104
717,50	0,102
720,00	0,100
722,50	0,098
725,00	0,096
727,50	0,094
730,00	0,092
732,50	0,091
735,00	0,089
737,50	0,087
740,00	0,086
742,50	0,084
745,00	0,083
747,50	0,081
750,00	0,080
752,50	0,079
755,00	0,078
757,50	0,076
760,00	0,075
762,50	0,074
765,00	0,073
767,50	0,072
770,00	0,071
772,50	0,069
775,00	0,068
777,50	0,067
780,00	0,066
782,50	0,066
785,00	0,065
787,50	0,064
790,00	0,063
792,50	0,062
795,00	0,061
797,50	0,061
800,00	0,061