Folder: Sintesis_Nanoparticulas_Oro/Espectro Uv-Vis/citrato/0.40

Note: README.md
# Sintesis_Nanoparticulas_Oro

File: 0.41.txt
"0.4_2 - Dataset 195027"
"Wavelength nm."	"Abs."
200,00	0,255
202,50	0,255
205,00	0,254
207,50	0,255
210,00	0,256
212,50	0,259
215,00	0,262
217,50	0,265
220,00	0,267
222,50	0,268
225,00	0,270
227,50	0,270
230,00	0,271
232,50	0,272
235,00	0,273
237,50	0,274
240,00	0,275
242,50	0,277
245,00	0,279
247,50	0,280
250,00	0,283
252,50	0,285
255,00	0,286
257,50	0,288
260,00	0,289
262,50	0,289
265,00	0,289
267,50	0,289
270,00	0,287
272,50	0,285
275,00	0,282
277,50	0,279
280,00	0,276
282,50	0,272
285,00	0,269
287,50	0,266
290,00	0,262
292,50	0,258
295,00	0,255
297,50	0,252
300,00	0,248
302,50	0,245
305,00	0,242
307,50	0,238
310,00	0,235
312,50	0,232
315,00	0,229
317,50	0,225
320,00	0,223
322,50	0,220
325,00	0,217
327,50	0,214
330,00	0,212
332,50	0,209
335,00	0,207
337,50	0,204
340,00	0,203
342,50	0,201
345,00	0,200
347,50	0,199
350,00	0,198
352,50	0,198
355,00	0,198
357,50	0,198
360,00	0,198
362,50	0,197
365,00	0,197
367,50	0,197
370,00	0,196
372,50	0,196
375,00	0,195
377,50	0,194
380,00	0,193
382,50	0,193
385,00	0,192
387,50	0,190
390,00	0,189
392,50	0,189
395,00	0,188
397,50	0,187
400,00	0,186
402,50	0,185
405,00	0,184
407,50	0,182
410,00	0,181
412,50	0,180
415,00	0,180
417,50	0,179
420,00	0,178
422,50	0,177
425,00	0,176
427,50	0,175
430,00	0,174
432,50	0,173
435,00	0,173
437,50	0,172
440,00	0,172
442,50	0,171
445,00	0,171
447,50	0,170
450,00	0,170
452,50	0,170
455,00	0,170
457,50	0,170
460,00	0,171
462,50	0,171
465,00	0,172
467,50	0,173
470,00	0,174
472,50	0,176
475,00	0,178
477,50	0,180
480,00	0,183
482,50	0,186
485,00	0,191
487,50	0,196
490,00	0,202
492,50	0,210
495,00	0,219
497,50	0,228
500,00	0,239
502,50	0,250
505,00	0,262
507,50	0,274
510,00	0,286
512,50	0,298
515,00	0,309
517,50	0,319
520,00	0,328
522,50	0,335
525,00	0,340
527,50	0,344
530,00	0,346
532,50	0,346
535,00	0,345
537,50	0,343
540,00	0,340
542,50	0,335
545,00	0,329
547,50	0,323
550,00	0,316
552,50	0,307
555,00	0,298
557,50	0,289
560,00	0,279
562,50	0,268
565,00	0,257
567,50	0,246
570,00	0,234
572,50	0,223
575,00	0,212
577,50	0,201
580,00	0,190
582,50	0,179
585,00	0,169
587,50	0,159
590,00	0,150
592,50	0,140
595,00	0,132
597,50	0,124
600,00	0,117
602,50	0,109
605,00	0,103
607,50	0,097
610,00	0,091
612,50	0,085
615,00	0,080
617,50	0,075
620,00	0,070
622,50	0,066
625,00	0,062
627,50	0,059
630,00	0,055
632,50	0,052
635,00	0,049
637,50	0,046
640,00	0,043
642,50	0,041
645,00	0,039
647,50	0,036
650,00	0,034
652,50	0,033
655,00	0,031
657,50	0,029
660,00	0,028
662,50	0,026
665,00	0,025
667,50	0,023
670,00	0,022
672,50	0,021
675,00	0,020
677,50	0,019
680,00	0,018
682,50	0,017
685,00	0,016
687,50	0,015
690,00	0,015
692,50	0,014
695,00	0,013
697,50	0,013
700,00	0,012
702,50	0,012
705,00	0,011
707,50	0,011
710,00	0,010
712,50	0,010
715,00	0,009
717,50	0,009
720,00	0,008
722,50	0,008
725,00	0,008
727,50	0,007
730,00	0,007
732,50	0,007
735,00	0,006
737,50	0,006
740,00	0,005
742,50	0,005
745,00	0,005
747,50	0,005
750,00	0,004
752,50	0,004
755,00	0,004
757,50	0,004
760,00	0,003
762,50	0,003
765,00	0,003
767,50	0,003
770,00	0,003
772,50	0,003
775,00	0,003
777,50	0,003
780,00	0,003
782,50	0,002
785,00	0,002
787,50	0,001
790,00	0,001
792,50	0,001
795,00	0,001
797,50	0,001
800,00	0,001