Folder: Sintesis_Nanoparticulas_Oro/Espectro Uv-Vis/citrato/0.80

Note: README.md
# Sintesis_Nanoparticulas_Oro

File: 0.79.txt
"0.8ml - Dataset 231212"
"Wavelength nm."	"Abs."
200,00	2,800
202,50	2,800
205,00	3,159
207,50	2,388
210,00	2,016
212,50	2,284
215,00	2,107
217,50	1,720
220,00	4,150
222,50	3,146
225,00	0,447
227,50	1,800
230,00	2,479
232,50	1,184
235,00	1,328
237,50	1,860
240,00	3,274
242,50	3,209
245,00	1,136
247,50	0,827
250,00	1,629
252,50	1,466
255,00	1,856
257,50	1,081
260,00	0,105
262,50	-0,144
265,00	-0,137
267,50	0,344
270,00	1,047
272,50	1,380
275,00	1,513
277,50	0,575
280,00	0,599
282,50	0,900
285,00	0,451
287,50	0,243
290,00	0,820
292,50	0,653
295,00	-0,089
297,50	0,265
300,00	0,269
302,50	0,277
305,00	0,278
307,50	0,267
310,00	0,269
312,50	0,274
315,00	0,268
317,50	0,277
320,00	0,264
322,50	0,251
325,00	0,253
327,50	0,250
330,00	0,241
332,50	0,238
335,00	0,240
337,50	0,237
340,00	0,233
342,50	0,239
345,00	0,240
347,50	0,232
350,00	0,234
352,50	0,231
355,00	0,226
357,50	0,231
360,00	0,230
362,50	0,226
365,00	0,224
367,50	0,223
370,00	0,221
372,50	0,221
375,00	0,223
377,50	0,222
380,00	0,216
382,50	0,216
385,00	0,212
387,50	0,211
390,00	0,215
392,50	0,214
395,00	0,209
397,50	0,209
400,00	0,207
402,50	0,204
405,00	0,203
407,50	0,203
410,00	0,204
412,50	0,201
415,00	0,201
417,50	0,201
420,00	0,200
422,50	0,199
425,00	0,200
427,50	0,198
430,00	0,197
432,50	0,196
435,00	0,197
437,50	0,196
440,00	0,196
442,50	0,197
445,00	0,195
447,50	0,194
450,00	0,197
452,50	0,198
455,00	0,199
457,50	0,200
460,00	0,199
462,50	0,201
465,00	0,202
467,50	0,203
470,00	0,209
472,50	0,211
475,00	0,212
477,50	0,217
480,00	0,222
482,50	0,227
485,00	0,233
487,50	0,239
490,00	0,244
492,50	0,251
495,00	0,261
497,50	0,271
500,00	0,280
502,50	0,288
505,00	0,299
507,50	0,311
510,00	0,319
512,50	0,327
515,00	0,332
517,50	0,336
520,00	0,340
522,50	0,341
525,00	0,338
527,50	0,336
530,00	0,335
532,50	0,329
535,00	0,325
537,50	0,318
540,00	0,311
542,50	0,303
545,00	0,292
547,50	0,281
550,00	0,268
552,50	0,259
555,00	0,251
557,50	0,239
560,00	0,227
562,50	0,217
565,00	0,204
567,50	0,192
570,00	0,184
572,50	0,174
575,00	0,166
577,50	0,157
580,00	0,146
582,50	0,137
585,00	0,131
587,50	0,125
590,00	0,117
592,50	0,110
595,00	0,102
597,50	0,097
600,00	0,093
602,50	0,087
605,00	0,083
607,50	0,079
610,00	0,075
612,50	0,072
615,00	0,066
617,50	0,062
620,00	0,059
622,50	0,057
625,00	0,054
627,50	0,051
630,00	0,049
632,50	0,046
635,00	0,045
637,50	0,042
640,00	0,039
642,50	0,040
645,00	0,037
647,50	0,034
650,00	0,033
652,50	0,031
655,00	0,032
657,50	0,030
660,00	0,028
662,50	0,028
665,00	0,026
667,50	0,026
670,00	0,024
672,50	0,021
675,00	0,020
677,50	0,021
680,00	0,021
682,50	0,020
685,00	0,019
687,50	0,017
690,00	0,017
692,50	0,016
695,00	0,016
697,50	0,017
700,00	0,015
702,50	0,014
705,00	0,015
707,50	0,014
710,00	0,013
712,50	0,012
715,00	0,014
717,50	0,012
720,00	0,011
722,50	0,014
725,00	0,011
727,50	0,011
730,00	0,016
732,50	0,012
735,00	0,008
737,50	0,009
740,00	0,011
742,50	0,010
745,00	0,009
747,50	0,011
750,00	0,009
752,50	0,009
755,00	0,010
757,50	0,011
760,00	0,009
762,50	0,007
765,00	0,006
767,50	0,003
770,00	0,006
772,50	0,008
775,00	0,007
777,50	0,008
780,00	0,007
782,50	0,007
785,00	0,010
787,50	0,009
790,00	0,007
792,50	0,003
795,00	0,003
797,50	0,005
800,00	0,005