Folder: Sintesis_Nanoparticulas_Oro/Espectro Uv-Vis/citrato/1.00

Note: Espectro Uv-Vis/citrato/1.00/ambos.txt
molaridad,lambda máx,absorbancia,área
0.9,520,0.319,11.951
1,519,0.307,13.510
1.1,519.5,0.321,13.206

Note: README.md
# Sintesis_Nanoparticulas_Oro

File: 1.1.txt
"1 - Dataset 195837"
"Wavelength nm."	"Abs."
200,00	2,380
202,50	2,380
205,00	2,294
207,50	2,050
210,00	1,562
212,50	2,494
215,00	3,623
217,50	1,975
220,00	-0,058
222,50	1,034
225,00	2,700
227,50	1,987
230,00	0,318
232,50	0,993
235,00	1,518
237,50	-0,099
240,00	0,508
242,50	1,829
245,00	1,595
247,50	1,855
250,00	0,993
252,50	0,191
255,00	1,006
257,50	0,247
260,00	-0,005
262,50	1,586
265,00	1,622
267,50	1,149
270,00	0,997
272,50	0,279
275,00	0,398
277,50	0,846
280,00	0,295
282,50	0,264
285,00	0,347
287,50	0,259
290,00	0,280
292,50	0,264
295,00	0,234
297,50	0,251
300,00	0,256
302,50	0,255
305,00	0,252
307,50	0,249
310,00	0,246
312,50	0,244
315,00	0,241
317,50	0,237
320,00	0,235
322,50	0,233
325,00	0,231
327,50	0,228
330,00	0,226
332,50	0,225
335,00	0,224
337,50	0,223
340,00	0,221
342,50	0,220
345,00	0,219
347,50	0,218
350,00	0,218
352,50	0,217
355,00	0,216
357,50	0,215
360,00	0,214
362,50	0,213
365,00	0,212
367,50	0,211
370,00	0,209
372,50	0,209
375,00	0,208
377,50	0,207
380,00	0,205
382,50	0,204
385,00	0,203
387,50	0,201
390,00	0,200
392,50	0,199
395,00	0,198
397,50	0,197
400,00	0,196
402,50	0,194
405,00	0,194
407,50	0,193
410,00	0,192
412,50	0,191
415,00	0,190
417,50	0,190
420,00	0,189
422,50	0,189
425,00	0,188
427,50	0,188
430,00	0,188
432,50	0,188
435,00	0,188
437,50	0,188
440,00	0,188
442,50	0,188
445,00	0,188
447,50	0,189
450,00	0,190
452,50	0,190
455,00	0,191
457,50	0,192
460,00	0,194
462,50	0,196
465,00	0,198
467,50	0,200
470,00	0,202
472,50	0,205
475,00	0,208
477,50	0,212
480,00	0,217
482,50	0,222
485,00	0,227
487,50	0,234
490,00	0,241
492,50	0,249
495,00	0,257
497,50	0,266
500,00	0,275
502,50	0,284
505,00	0,293
507,50	0,301
510,00	0,308
512,50	0,314
515,00	0,318
517,50	0,320
520,00	0,321
522,50	0,319
525,00	0,315
527,50	0,310
530,00	0,302
532,50	0,293
535,00	0,283
537,50	0,272
540,00	0,259
542,50	0,246
545,00	0,233
547,50	0,220
550,00	0,207
552,50	0,195
555,00	0,183
557,50	0,172
560,00	0,162
562,50	0,152
565,00	0,142
567,50	0,133
570,00	0,125
572,50	0,117
575,00	0,110
577,50	0,104
580,00	0,098
582,50	0,093
585,00	0,088
587,50	0,083
590,00	0,078
592,50	0,074
595,00	0,071
597,50	0,067
600,00	0,064
602,50	0,061
605,00	0,059
607,50	0,056
610,00	0,054
612,50	0,051
615,00	0,050
617,50	0,048
620,00	0,046
622,50	0,044
625,00	0,043
627,50	0,041
630,00	0,040
632,50	0,039
635,00	0,037
637,50	0,036
640,00	0,035
642,50	0,034
645,00	0,033
647,50	0,032
650,00	0,031
652,50	0,031
655,00	0,030
657,50	0,029
660,00	0,029
662,50	0,028
665,00	0,027
667,50	0,027
670,00	0,026
672,50	0,026
675,00	0,025
677,50	0,025
680,00	0,024
682,50	0,024
685,00	0,024
687,50	0,023
690,00	0,023
692,50	0,023
695,00	0,022
697,50	0,022
700,00	0,022
702,50	0,022
705,00	0,021
707,50	0,021
710,00	0,020
712,50	0,020
715,00	0,020
717,50	0,019
720,00	0,019
722,50	0,019
725,00	0,019
727,50	0,018
730,00	0,018
732,50	0,018
735,00	0,018
737,50	0,017
740,00	0,017
742,50	0,017
745,00	0,017
747,50	0,017
750,00	0,016
752,50	0,016
755,00	0,016
757,50	0,016
760,00	0,016
762,50	0,016
765,00	0,015
767,50	0,015
770,00	0,015
772,50	0,015
775,00	0,015
777,50	0,014
780,00	0,014
782,50	0,014
785,00	0,014
787,50	0,014
790,00	0,014
792,50	0,014
795,00	0,014
797,50	0,014
800,00	0,014