Folder: Sintesis_Nanoparticulas_Oro/Espectro Uv-Vis/citrato/1.60

Note: Espectro Uv-Vis/citrato/1.60/ambos.txt
molaridad,lambda máx,absorbancia,área
1.60,518,0.252,10.831
1.60,518.5,0.273,12.105
1.60,519,0.331,11.932

Note: README.md
# Sintesis_Nanoparticulas_Oro

File: 1.59.txt
"1.6_1 - Dataset 200507"
"Wavelength nm."	"Abs."
200,00	0.549
202,50	0.497
205,00	0.463
207,50	0.438
210,00	0.419
212,50	0.399
215,00	0.381
217,50	0.365
220,00	0.353
222,50	0.34
225,00	0.331
227,50	0.325
230,00	0.318
232,50	0.313
235,00	0.311
237,50	0.308
240,00	0.306
242,50	0.303
245,00	0.303
247,50	0.299
250,00	0.296
252,50	0.295
255,00	0.292
257,50	0.289
260,00	0.286
262,50	0.281
265,00	0.277
267,50	0.272
270,00	0.266
272,50	0.26
275,00	0.255
277,50	0.249
280,00	0.243
282,50	0.237
285,00	0.232
287,50	0.229
290,00	0.223
292,50	0.218
295,00	0.213
297,50	0.208
300,00	0.206
302,50	0.201
305,00	0.198
307,50	0.193
310,00	0.192
312,50	0.19
315,00	0.186
317,50	0.184
320,00	0.18
322,50	0.181
325,00	0.178
327,50	0.176
330,00	0.176
332,50	0.174
335,00	0.172
337,50	0.171
340,00	0.171
342,50	0.17
345,00	0.169
347,50	0.169
350,00	0.168
352,50	0.167
355,00	0.167
357,50	0.167
360,00	0.165
362,50	0.165
365,00	0.164
367,50	0.163
370,00	0.162
372,50	0.16
375,00	0.16
377,50	0.16
380,00	0.158
382,50	0.158
385,00	0.157
387,50	0.156
390,00	0.154
392,50	0.154
395,00	0.154
397,50	0.152
400,00	0.151
402,50	0.151
405,00	0.15
407,50	0.149
410,00	0.149
412,50	0.148
415,00	0.148
417,50	0.148
420,00	0.147
422,50	0.146
425,00	0.146
427,50	0.146
430,00	0.145
432,50	0.145
435,00	0.146
437,50	0.145
440,00	0.146
442,50	0.146
445,00	0.146
447,50	0.147
450,00	0.147
452,50	0.149
455,00	0.149
457,50	0.151
460,00	0.152
462,50	0.154
465,00	0.155
467,50	0.158
470,00	0.16
472,50	0.162
475,00	0.166
477,50	0.168
480,00	0.172
482,50	0.176
485,00	0.181
487,50	0.186
490,00	0.191
492,50	0.198
495,00	0.205
497,50	0.212
500,00	0.219
502,50	0.225
505,00	0.232
507,50	0.238
510,00	0.243
512,50	0.248
515,00	0.25
517,50	0.251
520,00	0.251
522,50	0.249
525,00	0.245
527,50	0.239
530,00	0.232
532,50	0.225
535,00	0.215
537,50	0.205
540,00	0.194
542,50	0.182
545,00	0.171
547,50	0.16
550,00	0.148
552,50	0.138
555,00	0.128
557,50	0.119
560,00	0.109
562,50	0.101
565,00	0.093
567,50	0.086
570,00	0.079
572,50	0.073
575,00	0.067
577,50	0.062
580,00	0.057
582,50	0.053
585,00	0.049
587,50	0.045
590,00	0.041
592,50	0.038
595,00	0.035
597,50	0.033
600,00	0.03
602,50	0.028
605,00	0.026
607,50	0.024
610,00	0.022
612,50	0.021
615,00	0.019
617,50	0.017
620,00	0.017
622,50	0.015
625,00	0.013
627,50	0.013
630,00	0.011
632,50	0.01
635,00	0.01
637,50	0.008
640,00	0.008
642,50	0.007
645,00	0.007
647,50	0.006
650,00	0.005
652,50	0.005
655,00	0.004
657,50	0.004
660,00	0.004
662,50	0.003
665,00	0.003
667,50	0.002
670,00	0.001
672,50	0.001
675,00	0
677,50	0
680,00	0
682,50	0
685,00	-0.001
687,50	-0.001
690,00	-0.002
692,50	-0.001
695,00	-0.002
697,50	-0.002
700,00	-0.002
702,50	-0.002
705,00	-0.002
707,50	-0.002
710,00	-0.002
712,50	-0.003
715,00	-0.002
717,50	-0.003
720,00	-0.003
722,50	-0.003
725,00	-0.003
727,50	-0.003
730,00	-0.003
732,50	-0.003
735,00	-0.004
737,50	-0.004
740,00	-0.004
742,50	-0.003
745,00	-0.004
747,50	-0.003
750,00	-0.004
752,50	-0.004
755,00	-0.004
757,50	-0.004
760,00	-0.004
762,50	-0.004
765,00	-0.004
767,50	-0.005
770,00	-0.004
772,50	-0.004
775,00	-0.004
777,50	-0.003
780,00	-0.004
782,50	-0.004
785,00	-0.005
787,50	-0.004
790,00	-0.005
792,50	-0.004
795,00	-0.005
797,50	-0.005
800,00	-0.005