Folder: Sintesis_Nanoparticulas_Oro/Espectro Uv-Vis/citrato/1.80

Note: Espectro Uv-Vis/citrato/1.80/ambos.txt
molaridad,lambda máx,absorbancia,área
1.79,518,0.257,11.790
1.80,518.5,0.279,12.101
1.81,519,0.317,11.951

Note: README.md
# Sintesis_Nanoparticulas_Oro

File: 1.80.txt
"1.8 - Dataset 200718"
"Wavelength nm."	"Abs."
200,00	0.67
202,50	0.603
205,00	0.56
207,50	0.526
210,00	0.494
212,50	0.466
215,00	0.44
217,50	0.416
220,00	0.394
222,50	0.377
225,00	0.363
227,50	0.351
230,00	0.344
232,50	0.337
235,00	0.331
237,50	0.328
240,00	0.325
242,50	0.322
245,00	0.32
247,50	0.317
250,00	0.314
252,50	0.312
255,00	0.31
257,50	0.307
260,00	0.303
262,50	0.298
265,00	0.293
267,50	0.289
270,00	0.282
272,50	0.276
275,00	0.27
277,50	0.265
280,00	0.259
282,50	0.253
285,00	0.248
287,50	0.243
290,00	0.239
292,50	0.231
295,00	0.229
297,50	0.222
300,00	0.22
302,50	0.215
305,00	0.211
307,50	0.208
310,00	0.205
312,50	0.204
315,00	0.199
317,50	0.197
320,00	0.194
322,50	0.193
325,00	0.191
327,50	0.188
330,00	0.187
332,50	0.186
335,00	0.183
337,50	0.182
340,00	0.182
342,50	0.181
345,00	0.181
347,50	0.179
350,00	0.179
352,50	0.178
355,00	0.178
357,50	0.177
360,00	0.176
362,50	0.174
365,00	0.174
367,50	0.173
370,00	0.171
372,50	0.17
375,00	0.17
377,50	0.169
380,00	0.168
382,50	0.167
385,00	0.166
387,50	0.164
390,00	0.164
392,50	0.163
395,00	0.162
397,50	0.161
400,00	0.16
402,50	0.16
405,00	0.159
407,50	0.158
410,00	0.158
412,50	0.156
415,00	0.156
417,50	0.156
420,00	0.155
422,50	0.155
425,00	0.155
427,50	0.154
430,00	0.154
432,50	0.154
435,00	0.154
437,50	0.153
440,00	0.154
442,50	0.154
445,00	0.155
447,50	0.155
450,00	0.156
452,50	0.157
455,00	0.157
457,50	0.159
460,00	0.16
462,50	0.162
465,00	0.164
467,50	0.166
470,00	0.168
472,50	0.17
475,00	0.174
477,50	0.177
480,00	0.18
482,50	0.184
485,00	0.189
487,50	0.194
490,00	0.199
492,50	0.205
495,00	0.211
497,50	0.218
500,00	0.225
502,50	0.231
505,00	0.237
507,50	0.243
510,00	0.248
512,50	0.252
515,00	0.254
517,50	0.256
520,00	0.256
522,50	0.255
525,00	0.252
527,50	0.247
530,00	0.241
532,50	0.234
535,00	0.226
537,50	0.217
540,00	0.207
542,50	0.195
545,00	0.185
547,50	0.174
550,00	0.163
552,50	0.152
555,00	0.142
557,50	0.132
560,00	0.123
562,50	0.114
565,00	0.106
567,50	0.098
570,00	0.09
572,50	0.084
575,00	0.077
577,50	0.071
580,00	0.066
582,50	0.061
585,00	0.056
587,50	0.052
590,00	0.047
592,50	0.044
595,00	0.041
597,50	0.038
600,00	0.035
602,50	0.032
605,00	0.03
607,50	0.028
610,00	0.026
612,50	0.024
615,00	0.022
617,50	0.02
620,00	0.019
622,50	0.017
625,00	0.016
627,50	0.015
630,00	0.013
632,50	0.012
635,00	0.011
637,50	0.01
640,00	0.009
642,50	0.009
645,00	0.008
647,50	0.007
650,00	0.006
652,50	0.006
655,00	0.005
657,50	0.005
660,00	0.004
662,50	0.004
665,00	0.003
667,50	0.002
670,00	0.002
672,50	0.002
675,00	0.001
677,50	0
680,00	0
682,50	0
685,00	0
687,50	-0.001
690,00	-0.001
692,50	-0.001
695,00	-0.002
697,50	-0.002
700,00	-0.002
702,50	-0.002
705,00	-0.002
707,50	-0.002
710,00	-0.001
712,50	-0.002
715,00	-0.002
717,50	-0.003
720,00	-0.003
722,50	-0.003
725,00	-0.003
727,50	-0.003
730,00	-0.003
732,50	-0.003
735,00	-0.003
737,50	-0.003
740,00	-0.004
742,50	-0.003
745,00	-0.004
747,50	-0.004
750,00	-0.004
752,50	-0.004
755,00	-0.004
757,50	-0.004
760,00	-0.005
762,50	-0.004
765,00	-0.004
767,50	-0.005
770,00	-0.004
772,50	-0.004
775,00	-0.003
777,50	-0.003
780,00	-0.003
782,50	-0.004
785,00	-0.004
787,50	-0.004
790,00	-0.005
792,50	-0.005
795,00	-0.004
797,50	-0.005
800,00	-0.005

File: 1.81.txt
"1.8 - Dataset 191059"
"Wavelength nm."	"Abs."
200,00	5,437
202,50	5,437
205,00	3,834
207,50	2,242
210,00	3,358
212,50	2,993
215,00	2,261
217,50	2,071
220,00	1,317
222,50	1,227
225,00	2,890
227,50	3,210
230,00	0,789
232,50	0,985
235,00	0,987
237,50	-0,311
240,00	0,025
242,50	0,040
245,00	0,359
247,50	0,891
250,00	1,230
252,50	2,287
255,00	3,001
257,50	0,941
260,00	0,991
262,50	2,682
265,00	1,629
267,50	1,172
270,00	2,939
272,50	1,449
275,00	0,373
277,50	0,933
280,00	0,306
282,50	0,163
285,00	0,306
287,50	0,332
290,00	0,349
292,50	0,339
295,00	0,309
297,50	0,295
300,00	0,286
302,50	0,281
305,00	0,277
307,50	0,273
310,00	0,270
312,50	0,267
315,00	0,263
317,50	0,259
320,00	0,256
322,50	0,253
325,00	0,251
327,50	0,248
330,00	0,246
332,50	0,244
335,00	0,242
337,50	0,240
340,00	0,239
342,50	0,238
345,00	0,236
347,50	0,235
350,00	0,235
352,50	0,234
355,00	0,232
357,50	0,231
360,00	0,230
362,50	0,229
365,00	0,228
367,50	0,227
370,00	0,225
372,50	0,224
375,00	0,223
377,50	0,222
380,00	0,221
382,50	0,219
385,00	0,218
387,50	0,216
390,00	0,215
392,50	0,214
395,00	0,213
397,50	0,212
400,00	0,210
402,50	0,209
405,00	0,208
407,50	0,207
410,00	0,206
412,50	0,206
415,00	0,205
417,50	0,204
420,00	0,204
422,50	0,203
425,00	0,203
427,50	0,202
430,00	0,202
432,50	0,202
435,00	0,202
437,50	0,202
440,00	0,202
442,50	0,202
445,00	0,202
447,50	0,203
450,00	0,203
452,50	0,204
455,00	0,205
457,50	0,206
460,00	0,208
462,50	0,209
465,00	0,211
467,50	0,213
470,00	0,216
472,50	0,218
475,00	0,221
477,50	0,225
480,00	0,229
482,50	0,233
485,00	0,238
487,50	0,244
490,00	0,250
492,50	0,257
495,00	0,265
497,50	0,272
500,00	0,280
502,50	0,287
505,00	0,294
507,50	0,301
510,00	0,307
512,50	0,311
515,00	0,315
517,50	0,317
520,00	0,317
522,50	0,315
525,00	0,311
527,50	0,306
530,00	0,299
532,50	0,290
535,00	0,281
537,50	0,270
540,00	0,259
542,50	0,246
545,00	0,234
547,50	0,222
550,00	0,210
552,50	0,199
555,00	0,188
557,50	0,178
560,00	0,167
562,50	0,158
565,00	0,149
567,50	0,141
570,00	0,133
572,50	0,126
575,00	0,119
577,50	0,114
580,00	0,108
582,50	0,103
585,00	0,099
587,50	0,094
590,00	0,090
592,50	0,086
595,00	0,083
597,50	0,079
600,00	0,077
602,50	0,074
605,00	0,071
607,50	0,069
610,00	0,067
612,50	0,064
615,00	0,063
617,50	0,061
620,00	0,059
622,50	0,057
625,00	0,056
627,50	0,055
630,00	0,054
632,50	0,052
635,00	0,051
637,50	0,050
640,00	0,049
642,50	0,048
645,00	0,047
647,50	0,046
650,00	0,045
652,50	0,044
655,00	0,044
657,50	0,043
660,00	0,042
662,50	0,042
665,00	0,041
667,50	0,040
670,00	0,040
672,50	0,039
675,00	0,039
677,50	0,038
680,00	0,038
682,50	0,037
685,00	0,037
687,50	0,037
690,00	0,036
692,50	0,036
695,00	0,035
697,50	0,035
700,00	0,035
702,50	0,034
705,00	0,034
707,50	0,034
710,00	0,033
712,50	0,033
715,00	0,032
717,50	0,032
720,00	0,032
722,50	0,031
725,00	0,031
727,50	0,031
730,00	0,031
732,50	0,030
735,00	0,030
737,50	0,030
740,00	0,030
742,50	0,030
745,00	0,029
747,50	0,029
750,00	0,029
752,50	0,029
755,00	0,029
757,50	0,028
760,00	0,028
762,50	0,028
765,00	0,028
767,50	0,028
770,00	0,028
772,50	0,027
775,00	0,027
777,50	0,027
780,00	0,027
782,50	0,027
785,00	0,027
787,50	0,027
790,00	0,027
792,50	0,027
795,00	0,026
797,50	0,026
800,00	0,026