Folder: Sintesis_Nanoparticulas_Oro/Espectro Uv-Vis/citrato/2.00

Note: README.md
# Sintesis_Nanoparticulas_Oro

File: 1.9.txt
"2 - Dataset 201033"
"Wavelength nm."	"Abs."
200,00	0.574
202,50	0.535
205,00	0.513
207,50	0.495
210,00	0.483
212,50	0.47
215,00	0.454
217,50	0.442
220,00	0.429
222,50	0.416
225,00	0.406
227,50	0.395
230,00	0.386
232,50	0.38
235,00	0.373
237,50	0.369
240,00	0.365
242,50	0.36
245,00	0.358
247,50	0.355
250,00	0.351
252,50	0.349
255,00	0.344
257,50	0.34
260,00	0.335
262,50	0.33
265,00	0.325
267,50	0.318
270,00	0.311
272,50	0.304
275,00	0.297
277,50	0.291
280,00	0.284
282,50	0.277
285,00	0.272
287,50	0.267
290,00	0.261
292,50	0.254
295,00	0.251
297,50	0.244
300,00	0.242
302,50	0.236
305,00	0.231
307,50	0.227
310,00	0.225
312,50	0.222
315,00	0.219
317,50	0.214
320,00	0.212
322,50	0.21
325,00	0.207
327,50	0.206
330,00	0.205
332,50	0.203
335,00	0.201
337,50	0.199
340,00	0.197
342,50	0.197
345,00	0.197
347,50	0.195
350,00	0.195
352,50	0.194
355,00	0.193
357,50	0.193
360,00	0.193
362,50	0.19
365,00	0.19
367,50	0.189
370,00	0.188
372,50	0.186
375,00	0.185
377,50	0.185
380,00	0.184
382,50	0.183
385,00	0.181
387,50	0.18
390,00	0.178
392,50	0.178
395,00	0.177
397,50	0.175
400,00	0.175
402,50	0.174
405,00	0.174
407,50	0.172
410,00	0.172
412,50	0.171
415,00	0.171
417,50	0.17
420,00	0.169
422,50	0.169
425,00	0.168
427,50	0.168
430,00	0.168
432,50	0.167
435,00	0.168
437,50	0.167
440,00	0.168
442,50	0.167
445,00	0.168
447,50	0.168
450,00	0.169
452,50	0.169
455,00	0.17
457,50	0.171
460,00	0.173
462,50	0.174
465,00	0.176
467,50	0.179
470,00	0.181
472,50	0.183
475,00	0.186
477,50	0.19
480,00	0.194
482,50	0.198
485,00	0.204
487,50	0.209
490,00	0.216
492,50	0.223
495,00	0.231
497,50	0.24
500,00	0.247
502,50	0.256
505,00	0.263
507,50	0.27
510,00	0.277
512,50	0.282
515,00	0.285
517,50	0.287
520,00	0.288
522,50	0.285
525,00	0.281
527,50	0.275
530,00	0.268
532,50	0.259
535,00	0.248
537,50	0.237
540,00	0.225
542,50	0.212
545,00	0.2
547,50	0.187
550,00	0.175
552,50	0.164
555,00	0.153
557,50	0.142
560,00	0.132
562,50	0.123
565,00	0.114
567,50	0.106
570,00	0.098
572,50	0.091
575,00	0.085
577,50	0.079
580,00	0.073
582,50	0.069
585,00	0.065
587,50	0.06
590,00	0.056
592,50	0.052
595,00	0.049
597,50	0.046
600,00	0.043
602,50	0.041
605,00	0.039
607,50	0.037
610,00	0.034
612,50	0.032
615,00	0.03
617,50	0.029
620,00	0.028
622,50	0.026
625,00	0.024
627,50	0.023
630,00	0.022
632,50	0.021
635,00	0.02
637,50	0.019
640,00	0.018
642,50	0.017
645,00	0.017
647,50	0.016
650,00	0.015
652,50	0.015
655,00	0.014
657,50	0.014
660,00	0.013
662,50	0.013
665,00	0.013
667,50	0.011
670,00	0.011
672,50	0.01
675,00	0.01
677,50	0.009
680,00	0.009
682,50	0.009
685,00	0.009
687,50	0.009
690,00	0.008
692,50	0.008
695,00	0.008
697,50	0.007
700,00	0.007
702,50	0.007
705,00	0.007
707,50	0.007
710,00	0.007
712,50	0.006
715,00	0.007
717,50	0.006
720,00	0.006
722,50	0.007
725,00	0.006
727,50	0.006
730,00	0.006
732,50	0.006
735,00	0.005
737,50	0.005
740,00	0.005
742,50	0.005
745,00	0.005
747,50	0.005
750,00	0.005
752,50	0.004
755,00	0.005
757,50	0.005
760,00	0.005
762,50	0.004
765,00	0.004
767,50	0.004
770,00	0.005
772,50	0.005
775,00	0.005
777,50	0.005
780,00	0.005
782,50	0.004
785,00	0.004
787,50	0.004
790,00	0.004
792,50	0.003
795,00	0.004
797,50	0.003
800,00	0.003