Folder: Sintesis_Nanoparticulas_Oro/Lambda max, Extincion max y Area/citrato/0.25

Note: Lambda max, Extincion max y Area/citrato/0.25/ambos.txt
molaridad,lambda máx,absorbancia,área
0.24,539.5,0.302,16.520
0.25,555.5,0.213,12.907
0.26,545,0.385,24.757

Note: README.md
# Sintesis_Nanoparticulas_Oro

File: 0.24.txt
"0.25 - Dataset 195944"
"Wavelength nm."	"Abs."
200,00	0,253
202,50	0,253
205,00	0,250
207,50	0,247
210,00	0,244
212,50	0,241
215,00	0,239
217,50	0,236
220,00	0,233
222,50	0,230
225,00	0,227
227,50	0,224
230,00	0,221
232,50	0,219
235,00	0,217
237,50	0,216
240,00	0,216
242,50	0,216
245,00	0,217
247,50	0,217
250,00	0,218
252,50	0,219
255,00	0,220
257,50	0,222
260,00	0,223
262,50	0,224
265,00	0,225
267,50	0,226
270,00	0,226
272,50	0,226
275,00	0,225
277,50	0,225
280,00	0,223
282,50	0,222
285,00	0,220
287,50	0,219
290,00	0,218
292,50	0,216
295,00	0,215
297,50	0,213
300,00	0,211
302,50	0,209
305,00	0,208
307,50	0,206
310,00	0,204
312,50	0,203
315,00	0,200
317,50	0,199
320,00	0,197
322,50	0,196
325,00	0,194
327,50	0,192
330,00	0,191
332,50	0,189
335,00	0,187
337,50	0,185
340,00	0,184
342,50	0,183
345,00	0,182
347,50	0,182
350,00	0,180
352,50	0,180
355,00	0,180
357,50	0,181
360,00	0,181
362,50	0,180
365,00	0,180
367,50	0,180
370,00	0,180
372,50	0,179
375,00	0,179
377,50	0,179
380,00	0,178
382,50	0,178
385,00	0,177
387,50	0,177
390,00	0,176
392,50	0,176
395,00	0,175
397,50	0,175
400,00	0,174
402,50	0,173
405,00	0,172
407,50	0,171
410,00	0,170
412,50	0,170
415,00	0,169
417,50	0,168
420,00	0,167
422,50	0,167
425,00	0,166
427,50	0,165
430,00	0,164
432,50	0,163
435,00	0,163
437,50	0,162
440,00	0,161
442,50	0,161
445,00	0,160
447,50	0,160
450,00	0,159
452,50	0,159
455,00	0,159
457,50	0,159
460,00	0,158
462,50	0,158
465,00	0,159
467,50	0,159
470,00	0,159
472,50	0,160
475,00	0,161
477,50	0,162
480,00	0,164
482,50	0,165
485,00	0,168
487,50	0,171
490,00	0,175
492,50	0,180
495,00	0,186
497,50	0,193
500,00	0,200
502,50	0,209
505,00	0,218
507,50	0,227
510,00	0,236
512,50	0,245
515,00	0,255
517,50	0,264
520,00	0,272
522,50	0,279
525,00	0,285
527,50	0,290
530,00	0,295
532,50	0,298
535,00	0,300
537,50	0,301
540,00	0,302
542,50	0,301
545,00	0,300
547,50	0,298
550,00	0,295
552,50	0,292
555,00	0,289
557,50	0,285
560,00	0,280
562,50	0,275
565,00	0,269
567,50	0,264
570,00	0,257
572,50	0,250
575,00	0,243
577,50	0,236
580,00	0,228
582,50	0,220
585,00	0,213
587,50	0,205
590,00	0,197
592,50	0,189
595,00	0,182
597,50	0,174
600,00	0,167
602,50	0,160
605,00	0,154
607,50	0,147
610,00	0,141
612,50	0,135
615,00	0,129
617,50	0,123
620,00	0,118
622,50	0,113
625,00	0,108
627,50	0,104
630,00	0,100
632,50	0,095
635,00	0,091
637,50	0,088
640,00	0,084
642,50	0,081
645,00	0,078
647,50	0,074
650,00	0,072
652,50	0,069
655,00	0,067
657,50	0,064
660,00	0,062
662,50	0,060
665,00	0,058
667,50	0,056
670,00	0,054
672,50	0,053
675,00	0,051
677,50	0,050
680,00	0,048
682,50	0,047
685,00	0,046
687,50	0,045
690,00	0,044
692,50	0,043
695,00	0,042
697,50	0,041
700,00	0,041
702,50	0,040
705,00	0,040
707,50	0,039
710,00	0,039
712,50	0,038
715,00	0,038
717,50	0,037
720,00	0,037
722,50	0,037
725,00	0,037
727,50	0,037
730,00	0,036
732,50	0,037
735,00	0,037
737,50	0,037
740,00	0,036
742,50	0,036
745,00	0,037
747,50	0,037
750,00	0,037
752,50	0,037
755,00	0,037
757,50	0,037
760,00	0,038
762,50	0,038
765,00	0,038
767,50	0,038
770,00	0,038
772,50	0,039
775,00	0,039
777,50	0,040
780,00	0,040
782,50	0,040
785,00	0,040
787,50	0,040
790,00	0,040
792,50	0,040
795,00	0,040
797,50	0,040
800,00	0,040

File: 0.25.txt
"0.25_2 - Dataset 200050"
"Wavelength nm."	"Abs."
200,00	0,141
202,50	0,141
205,00	0,139
207,50	0,138
210,00	0,138
212,50	0,138
215,00	0,139
217,50	0,140
220,00	0,140
222,50	0,140
225,00	0,140
227,50	0,139
230,00	0,139
232,50	0,137
235,00	0,137
237,50	0,136
240,00	0,136
242,50	0,137
245,00	0,137
247,50	0,137
250,00	0,138
252,50	0,139
255,00	0,140
257,50	0,141
260,00	0,141
262,50	0,142
265,00	0,142
267,50	0,143
270,00	0,143
272,50	0,143
275,00	0,143
277,50	0,143
280,00	0,142
282,50	0,142
285,00	0,141
287,50	0,141
290,00	0,140
292,50	0,139
295,00	0,140
297,50	0,139
300,00	0,137
302,50	0,137
305,00	0,137
307,50	0,136
310,00	0,136
312,50	0,136
315,00	0,135
317,50	0,135
320,00	0,134
322,50	0,134
325,00	0,133
327,50	0,133
330,00	0,132
332,50	0,132
335,00	0,131
337,50	0,131
340,00	0,130
342,50	0,130
345,00	0,130
347,50	0,129
350,00	0,129
352,50	0,129
355,00	0,129
357,50	0,130
360,00	0,130
362,50	0,130
365,00	0,130
367,50	0,130
370,00	0,131
372,50	0,131
375,00	0,131
377,50	0,131
380,00	0,131
382,50	0,132
385,00	0,132
387,50	0,132
390,00	0,132
392,50	0,132
395,00	0,132
397,50	0,132
400,00	0,132
402,50	0,132
405,00	0,132
407,50	0,131
410,00	0,131
412,50	0,131
415,00	0,131
417,50	0,130
420,00	0,130
422,50	0,130
425,00	0,130
427,50	0,129
430,00	0,128
432,50	0,128
435,00	0,128
437,50	0,127
440,00	0,127
442,50	0,126
445,00	0,126
447,50	0,126
450,00	0,125
452,50	0,125
455,00	0,124
457,50	0,124
460,00	0,124
462,50	0,123
465,00	0,123
467,50	0,123
470,00	0,122
472,50	0,122
475,00	0,122
477,50	0,122
480,00	0,122
482,50	0,123
485,00	0,123
487,50	0,125
490,00	0,126
492,50	0,129
495,00	0,132
497,50	0,136
500,00	0,140
502,50	0,144
505,00	0,150
507,50	0,155
510,00	0,160
512,50	0,166
515,00	0,171
517,50	0,177
520,00	0,182
522,50	0,186
525,00	0,191
527,50	0,194
530,00	0,198
532,50	0,201
535,00	0,204
537,50	0,206
540,00	0,208
542,50	0,210
545,00	0,211
547,50	0,212
550,00	0,212
552,50	0,213
555,00	0,213
557,50	0,213
560,00	0,213
562,50	0,212
565,00	0,211
567,50	0,211
570,00	0,210
572,50	0,209
575,00	0,207
577,50	0,206
580,00	0,205
582,50	0,203
585,00	0,202
587,50	0,201
590,00	0,199
592,50	0,198
595,00	0,196
597,50	0,195
600,00	0,193
602,50	0,192
605,00	0,190
607,50	0,189
610,00	0,187
612,50	0,186
615,00	0,184
617,50	0,182
620,00	0,181
622,50	0,179
625,00	0,177
627,50	0,176
630,00	0,174
632,50	0,173
635,00	0,171
637,50	0,169
640,00	0,168
642,50	0,166
645,00	0,164
647,50	0,163
650,00	0,161
652,50	0,160
655,00	0,158
657,50	0,157
660,00	0,155
662,50	0,154
665,00	0,152
667,50	0,150
670,00	0,148
672,50	0,147
675,00	0,145
677,50	0,143
680,00	0,142
682,50	0,140
685,00	0,139
687,50	0,138
690,00	0,136
692,50	0,134
695,00	0,133
697,50	0,132
700,00	0,130
702,50	0,129
705,00	0,128
707,50	0,127
710,00	0,125
712,50	0,124
715,00	0,122
717,50	0,121
720,00	0,120
722,50	0,119
725,00	0,117
727,50	0,116
730,00	0,115
732,50	0,114
735,00	0,112
737,50	0,111
740,00	0,110
742,50	0,109
745,00	0,108
747,50	0,107
750,00	0,106
752,50	0,104
755,00	0,103
757,50	0,102
760,00	0,101
762,50	0,100
765,00	0,099
767,50	0,099
770,00	0,098
772,50	0,097
775,00	0,096
777,50	0,095
780,00	0,095
782,50	0,093
785,00	0,092
787,50	0,091
790,00	0,090
792,50	0,089
795,00	0,088
797,50	0,088
800,00	0,088