Folder: Sintesis_Nanoparticulas_Oro/Lambda max, Extincion max y Area/citrato/0.40

Note: Lambda max, Extincion max y Area/citrato/0.40/ambos.txt
molaridad,lambda máx,absorbancia,área
0.4,531,0.391,17.803
0.4,530,0.329,16.481
0.4,532,0.346,18.268

Note: README.md
# Sintesis_Nanoparticulas_Oro

File: 0.39.txt
"0.4ml - Dataset 212417"
"Wavelength nm."	"Abs."
200,00	6,232
202,50	6,232
205,00	6,249
207,50	3,535
210,00	1,254
212,50	2,922
215,00	3,102
217,50	3,429
220,00	3,074
222,50	2,910
225,00	2,797
227,50	2,178
230,00	2,912
232,50	3,464
235,00	3,557
237,50	2,728
240,00	0,266
242,50	0,781
245,00	1,846
247,50	3,396
250,00	2,238
252,50	-0,422
255,00	1,074
257,50	2,925
260,00	3,047
262,50	1,210
265,00	2,119
267,50	2,998
270,00	1,830
272,50	0,791
275,00	0,771
277,50	0,965
280,00	0,600
282,50	0,221
285,00	0,284
287,50	0,206
290,00	1,871
292,50	2,440
295,00	0,334
297,50	0,259
300,00	0,305
302,50	0,298
305,00	0,291
307,50	0,289
310,00	0,272
312,50	0,268
315,00	0,268
317,50	0,264
320,00	0,252
322,50	0,258
325,00	0,261
327,50	0,258
330,00	0,256
332,50	0,260
335,00	0,249
337,50	0,238
340,00	0,241
342,50	0,239
345,00	0,239
347,50	0,235
350,00	0,235
352,50	0,233
355,00	0,237
357,50	0,236
360,00	0,234
362,50	0,233
365,00	0,231
367,50	0,235
370,00	0,235
372,50	0,236
375,00	0,234
377,50	0,230
380,00	0,230
382,50	0,229
385,00	0,224
387,50	0,223
390,00	0,223
392,50	0,221
395,00	0,220
397,50	0,219
400,00	0,220
402,50	0,218
405,00	0,217
407,50	0,213
410,00	0,213
412,50	0,215
415,00	0,210
417,50	0,208
420,00	0,210
422,50	0,208
425,00	0,209
427,50	0,205
430,00	0,204
432,50	0,206
435,00	0,204
437,50	0,202
440,00	0,203
442,50	0,203
445,00	0,204
447,50	0,202
450,00	0,202
452,50	0,202
455,00	0,202
457,50	0,202
460,00	0,203
462,50	0,204
465,00	0,205
467,50	0,205
470,00	0,207
472,50	0,209
475,00	0,213
477,50	0,216
480,00	0,217
482,50	0,222
485,00	0,226
487,50	0,230
490,00	0,237
492,50	0,245
495,00	0,254
497,50	0,266
500,00	0,278
502,50	0,290
505,00	0,303
507,50	0,316
510,00	0,331
512,50	0,344
515,00	0,356
517,50	0,366
520,00	0,375
522,50	0,382
525,00	0,388
527,50	0,391
530,00	0,391
532,50	0,389
535,00	0,388
537,50	0,385
540,00	0,380
542,50	0,372
545,00	0,363
547,50	0,356
550,00	0,346
552,50	0,332
555,00	0,320
557,50	0,307
560,00	0,292
562,50	0,277
565,00	0,265
567,50	0,251
570,00	0,237
572,50	0,226
575,00	0,214
577,50	0,201
580,00	0,188
582,50	0,178
585,00	0,167
587,50	0,157
590,00	0,149
592,50	0,139
595,00	0,131
597,50	0,125
600,00	0,116
602,50	0,109
605,00	0,104
607,50	0,098
610,00	0,093
612,50	0,089
615,00	0,083
617,50	0,077
620,00	0,074
622,50	0,073
625,00	0,069
627,50	0,066
630,00	0,061
632,50	0,059
635,00	0,058
637,50	0,054
640,00	0,053
642,50	0,053
645,00	0,051
647,50	0,049
650,00	0,049
652,50	0,046
655,00	0,045
657,50	0,044
660,00	0,042
662,50	0,041
665,00	0,041
667,50	0,038
670,00	0,036
672,50	0,035
675,00	0,034
677,50	0,037
680,00	0,035
682,50	0,033
685,00	0,033
687,50	0,033
690,00	0,035
692,50	0,036
695,00	0,033
697,50	0,030
700,00	0,032
702,50	0,032
705,00	0,027
707,50	0,028
710,00	0,029
712,50	0,026
715,00	0,028
717,50	0,029
720,00	0,026
722,50	0,027
725,00	0,029
727,50	0,028
730,00	0,028
732,50	0,027
735,00	0,026
737,50	0,026
740,00	0,023
742,50	0,025
745,00	0,025
747,50	0,026
750,00	0,028
752,50	0,027
755,00	0,026
757,50	0,024
760,00	0,022
762,50	0,023
765,00	0,025
767,50	0,021
770,00	0,023
772,50	0,023
775,00	0,024
777,50	0,024
780,00	0,025
782,50	0,025
785,00	0,021
787,50	0,022
790,00	0,026
792,50	0,025
795,00	0,023
797,50	0,023
800,00	0,023

File: 0.40.txt
"0.4_1 - Dataset 194733"
"Wavelength nm."	"Abs."
200,00	0,275
202,50	0,275
205,00	0,273
207,50	0,273
210,00	0,273
212,50	0,275
215,00	0,276
217,50	0,276
220,00	0,276
222,50	0,277
225,00	0,276
227,50	0,276
230,00	0,276
232,50	0,276
235,00	0,276
237,50	0,276
240,00	0,277
242,50	0,279
245,00	0,280
247,50	0,281
250,00	0,282
252,50	0,284
255,00	0,285
257,50	0,286
260,00	0,286
262,50	0,286
265,00	0,285
267,50	0,284
270,00	0,282
272,50	0,279
275,00	0,276
277,50	0,272
280,00	0,268
282,50	0,264
285,00	0,260
287,50	0,257
290,00	0,253
292,50	0,249
295,00	0,245
297,50	0,241
300,00	0,237
302,50	0,233
305,00	0,230
307,50	0,226
310,00	0,223
312,50	0,220
315,00	0,216
317,50	0,213
320,00	0,210
322,50	0,208
325,00	0,204
327,50	0,202
330,00	0,199
332,50	0,197
335,00	0,194
337,50	0,192
340,00	0,190
342,50	0,189
345,00	0,188
347,50	0,187
350,00	0,186
352,50	0,186
355,00	0,186
357,50	0,186
360,00	0,186
362,50	0,185
365,00	0,185
367,50	0,184
370,00	0,184
372,50	0,183
375,00	0,182
377,50	0,181
380,00	0,180
382,50	0,180
385,00	0,179
387,50	0,177
390,00	0,176
392,50	0,175
395,00	0,175
397,50	0,174
400,00	0,172
402,50	0,171
405,00	0,170
407,50	0,169
410,00	0,168
412,50	0,167
415,00	0,166
417,50	0,165
420,00	0,164
422,50	0,164
425,00	0,163
427,50	0,162
430,00	0,161
432,50	0,160
435,00	0,160
437,50	0,160
440,00	0,159
442,50	0,159
445,00	0,159
447,50	0,158
450,00	0,159
452,50	0,158
455,00	0,159
457,50	0,159
460,00	0,160
462,50	0,160
465,00	0,161
467,50	0,162
470,00	0,164
472,50	0,165
475,00	0,167
477,50	0,170
480,00	0,173
482,50	0,177
485,00	0,181
487,50	0,187
490,00	0,193
492,50	0,201
495,00	0,210
497,50	0,220
500,00	0,230
502,50	0,241
505,00	0,253
507,50	0,265
510,00	0,277
512,50	0,288
515,00	0,299
517,50	0,308
520,00	0,316
522,50	0,322
525,00	0,326
527,50	0,328
530,00	0,329
532,50	0,328
535,00	0,325
537,50	0,321
540,00	0,316
542,50	0,309
545,00	0,301
547,50	0,291
550,00	0,281
552,50	0,271
555,00	0,259
557,50	0,248
560,00	0,236
562,50	0,223
565,00	0,211
567,50	0,198
570,00	0,186
572,50	0,174
575,00	0,163
577,50	0,152
580,00	0,141
582,50	0,131
585,00	0,122
587,50	0,113
590,00	0,105
592,50	0,097
595,00	0,090
597,50	0,083
600,00	0,078
602,50	0,072
605,00	0,067
607,50	0,062
610,00	0,057
612,50	0,053
615,00	0,049
617,50	0,046
620,00	0,042
622,50	0,039
625,00	0,037
627,50	0,034
630,00	0,032
632,50	0,030
635,00	0,027
637,50	0,026
640,00	0,024
642,50	0,022
645,00	0,021
647,50	0,019
650,00	0,018
652,50	0,017
655,00	0,016
657,50	0,015
660,00	0,014
662,50	0,013
665,00	0,012
667,50	0,011
670,00	0,010
672,50	0,009
675,00	0,009
677,50	0,008
680,00	0,008
682,50	0,007
685,00	0,007
687,50	0,006
690,00	0,006
692,50	0,005
695,00	0,005
697,50	0,005
700,00	0,005
702,50	0,004
705,00	0,004
707,50	0,004
710,00	0,004
712,50	0,003
715,00	0,003
717,50	0,003
720,00	0,003
722,50	0,003
725,00	0,002
727,50	0,002
730,00	0,002
732,50	0,002
735,00	0,002
737,50	0,001
740,00	0,001
742,50	0,001
745,00	0,001
747,50	0,001
750,00	0,001
752,50	0,000
755,00	0,000
757,50	0,000
760,00	0,000
762,50	0,000
765,00	-0,000
767,50	-0,000
770,00	-0,000
772,50	0,000
775,00	0,000
777,50	0,000
780,00	0,000
782,50	-0,000
785,00	-0,001
787,50	-0,001
790,00	-0,001
792,50	-0,001
795,00	-0,002
797,50	-0,001
800,00	-0,001