Folder: Sintesis_Nanoparticulas_Oro/Lambda max, Extincion max y Area/citrato/0.60

Note: Lambda max, Extincion max y Area/citrato/0.60/ambos.txt
molaridad,lambda máx,absorbancia,área
0.6,529.5,0.382,18.121
0.6,526,0.295,14.194
0.6,526,0.307,14.835

Note: README.md
# Sintesis_Nanoparticulas_Oro

File: 0.61.txt
"0.6_2 - Dataset 195308"
"Wavelength nm."	"Abs."
200,00	0,288
202,50	0,288
205,00	0,287
207,50	0,288
210,00	0,291
212,50	0,294
215,00	0,298
217,50	0,301
220,00	0,303
222,50	0,306
225,00	0,307
227,50	0,309
230,00	0,309
232,50	0,310
235,00	0,311
237,50	0,311
240,00	0,312
242,50	0,313
245,00	0,313
247,50	0,314
250,00	0,314
252,50	0,314
255,00	0,313
257,50	0,312
260,00	0,310
262,50	0,308
265,00	0,305
267,50	0,301
270,00	0,297
272,50	0,292
275,00	0,287
277,50	0,281
280,00	0,276
282,50	0,271
285,00	0,266
287,50	0,262
290,00	0,257
292,50	0,252
295,00	0,248
297,50	0,243
300,00	0,239
302,50	0,234
305,00	0,230
307,50	0,226
310,00	0,223
312,50	0,219
315,00	0,216
317,50	0,212
320,00	0,209
322,50	0,207
325,00	0,204
327,50	0,201
330,00	0,199
332,50	0,197
335,00	0,195
337,50	0,193
340,00	0,192
342,50	0,191
345,00	0,190
347,50	0,190
350,00	0,189
352,50	0,189
355,00	0,189
357,50	0,188
360,00	0,188
362,50	0,187
365,00	0,187
367,50	0,186
370,00	0,185
372,50	0,184
375,00	0,184
377,50	0,183
380,00	0,182
382,50	0,181
385,00	0,180
387,50	0,179
390,00	0,178
392,50	0,177
395,00	0,176
397,50	0,175
400,00	0,174
402,50	0,173
405,00	0,172
407,50	0,171
410,00	0,170
412,50	0,170
415,00	0,169
417,50	0,168
420,00	0,167
422,50	0,167
425,00	0,166
427,50	0,166
430,00	0,165
432,50	0,164
435,00	0,164
437,50	0,164
440,00	0,164
442,50	0,163
445,00	0,163
447,50	0,163
450,00	0,163
452,50	0,164
455,00	0,164
457,50	0,165
460,00	0,165
462,50	0,166
465,00	0,167
467,50	0,169
470,00	0,171
472,50	0,172
475,00	0,175
477,50	0,178
480,00	0,181
482,50	0,185
485,00	0,190
487,50	0,195
490,00	0,201
492,50	0,209
495,00	0,217
497,50	0,226
500,00	0,236
502,50	0,246
505,00	0,256
507,50	0,265
510,00	0,274
512,50	0,283
515,00	0,290
517,50	0,297
520,00	0,302
522,50	0,305
525,00	0,306
527,50	0,306
530,00	0,305
532,50	0,303
535,00	0,299
537,50	0,294
540,00	0,289
542,50	0,282
545,00	0,274
547,50	0,266
550,00	0,258
552,50	0,249
555,00	0,240
557,50	0,231
560,00	0,221
562,50	0,211
565,00	0,202
567,50	0,193
570,00	0,184
572,50	0,175
575,00	0,166
577,50	0,158
580,00	0,150
582,50	0,142
585,00	0,135
587,50	0,128
590,00	0,121
592,50	0,115
595,00	0,109
597,50	0,104
600,00	0,099
602,50	0,094
605,00	0,089
607,50	0,085
610,00	0,081
612,50	0,077
615,00	0,073
617,50	0,069
620,00	0,066
622,50	0,063
625,00	0,061
627,50	0,058
630,00	0,055
632,50	0,053
635,00	0,051
637,50	0,049
640,00	0,047
642,50	0,045
645,00	0,043
647,50	0,041
650,00	0,040
652,50	0,038
655,00	0,037
657,50	0,035
660,00	0,034
662,50	0,033
665,00	0,032
667,50	0,030
670,00	0,029
672,50	0,028
675,00	0,027
677,50	0,026
680,00	0,025
682,50	0,025
685,00	0,024
687,50	0,023
690,00	0,022
692,50	0,021
695,00	0,021
697,50	0,020
700,00	0,020
702,50	0,019
705,00	0,019
707,50	0,019
710,00	0,018
712,50	0,017
715,00	0,017
717,50	0,016
720,00	0,016
722,50	0,016
725,00	0,015
727,50	0,015
730,00	0,014
732,50	0,014
735,00	0,014
737,50	0,013
740,00	0,013
742,50	0,012
745,00	0,012
747,50	0,012
750,00	0,011
752,50	0,011
755,00	0,011
757,50	0,011
760,00	0,010
762,50	0,010
765,00	0,010
767,50	0,010
770,00	0,010
772,50	0,010
775,00	0,010
777,50	0,010
780,00	0,009
782,50	0,009
785,00	0,008
787,50	0,008
790,00	0,008
792,50	0,007
795,00	0,007
797,50	0,007
800,00	0,007