Folder: Sintesis_Nanoparticulas_Oro/Lambda max, Extincion max y Area/citrato/0.80

Note: Lambda max, Extincion max y Area/citrato/0.80/ambos.txt
molaridad,lambda máx,absorbancia,área
0.79,521,0.342,13.808
0.80,522.5,0.270,12.797
0.81,524,0.333,15.146

Note: README.md
# Sintesis_Nanoparticulas_Oro

File: 0.80.txt
"0.8 - Dataset 195425"
"Wavelength nm."	"Abs."
200,00	0,381
202,50	0,381
205,00	0,377
207,50	0,369
210,00	0,364
212,50	0,358
215,00	0,353
217,50	0,347
220,00	0,342
222,50	0,338
225,00	0,333
227,50	0,329
230,00	0,326
232,50	0,323
235,00	0,320
237,50	0,318
240,00	0,317
242,50	0,315
245,00	0,314
247,50	0,312
250,00	0,310
252,50	0,309
255,00	0,307
257,50	0,304
260,00	0,301
262,50	0,296
265,00	0,292
267,50	0,287
270,00	0,282
272,50	0,276
275,00	0,270
277,50	0,264
280,00	0,258
282,50	0,252
285,00	0,247
287,50	0,242
290,00	0,237
292,50	0,232
295,00	0,227
297,50	0,222
300,00	0,218
302,50	0,214
305,00	0,210
307,50	0,207
310,00	0,203
312,50	0,200
315,00	0,197
317,50	0,194
320,00	0,191
322,50	0,189
325,00	0,187
327,50	0,184
330,00	0,182
332,50	0,181
335,00	0,179
337,50	0,177
340,00	0,176
342,50	0,176
345,00	0,175
347,50	0,174
350,00	0,173
352,50	0,173
355,00	0,173
357,50	0,173
360,00	0,172
362,50	0,171
365,00	0,170
367,50	0,170
370,00	0,169
372,50	0,168
375,00	0,167
377,50	0,166
380,00	0,165
382,50	0,164
385,00	0,163
387,50	0,162
390,00	0,161
392,50	0,160
395,00	0,159
397,50	0,158
400,00	0,157
402,50	0,157
405,00	0,156
407,50	0,155
410,00	0,154
412,50	0,154
415,00	0,153
417,50	0,152
420,00	0,152
422,50	0,151
425,00	0,151
427,50	0,150
430,00	0,150
432,50	0,150
435,00	0,150
437,50	0,149
440,00	0,150
442,50	0,150
445,00	0,150
447,50	0,150
450,00	0,150
452,50	0,151
455,00	0,151
457,50	0,152
460,00	0,154
462,50	0,155
465,00	0,156
467,50	0,158
470,00	0,160
472,50	0,162
475,00	0,165
477,50	0,168
480,00	0,172
482,50	0,176
485,00	0,180
487,50	0,186
490,00	0,192
492,50	0,199
495,00	0,206
497,50	0,214
500,00	0,222
502,50	0,230
505,00	0,238
507,50	0,246
510,00	0,253
512,50	0,259
515,00	0,264
517,50	0,267
520,00	0,269
522,50	0,270
525,00	0,269
527,50	0,267
530,00	0,264
532,50	0,260
535,00	0,254
537,50	0,248
540,00	0,241
542,50	0,232
545,00	0,224
547,50	0,215
550,00	0,206
552,50	0,197
555,00	0,188
557,50	0,179
560,00	0,170
562,50	0,161
565,00	0,152
567,50	0,144
570,00	0,136
572,50	0,128
575,00	0,120
577,50	0,113
580,00	0,106
582,50	0,099
585,00	0,094
587,50	0,088
590,00	0,082
592,50	0,077
595,00	0,072
597,50	0,068
600,00	0,063
602,50	0,060
605,00	0,056
607,50	0,052
610,00	0,049
612,50	0,046
615,00	0,043
617,50	0,040
620,00	0,038
622,50	0,035
625,00	0,033
627,50	0,031
630,00	0,029
632,50	0,027
635,00	0,026
637,50	0,024
640,00	0,022
642,50	0,021
645,00	0,020
647,50	0,018
650,00	0,017
652,50	0,016
655,00	0,015
657,50	0,014
660,00	0,013
662,50	0,012
665,00	0,012
667,50	0,010
670,00	0,010
672,50	0,009
675,00	0,008
677,50	0,007
680,00	0,007
682,50	0,006
685,00	0,006
687,50	0,005
690,00	0,005
692,50	0,004
695,00	0,004
697,50	0,004
700,00	0,003
702,50	0,003
705,00	0,003
707,50	0,003
710,00	0,002
712,50	0,002
715,00	0,002
717,50	0,001
720,00	0,001
722,50	0,001
725,00	0,001
727,50	0,000
730,00	0,000
732,50	0,000
735,00	-0,000
737,50	-0,000
740,00	-0,001
742,50	-0,001
745,00	-0,001
747,50	-0,001
750,00	-0,001
752,50	-0,001
755,00	-0,002
757,50	-0,002
760,00	-0,002
762,50	-0,002
765,00	-0,002
767,50	-0,002
770,00	-0,002
772,50	-0,002
775,00	-0,001
777,50	-0,001
780,00	-0,002
782,50	-0,002
785,00	-0,003
787,50	-0,003
790,00	-0,003
792,50	-0,003
795,00	-0,003
797,50	-0,003
800,00	-0,003

File: 0.81.txt
"0.8 - Dataset 194639"
"Wavelength nm."	"Abs."
200,00	3,371
202,50	3,371
205,00	3,508
207,50	4,757
210,00	3,725
212,50	2,577
215,00	2,209
217,50	0,766
220,00	1,016
222,50	0,806
225,00	1,606
227,50	1,709
230,00	0,773
232,50	1,532
235,00	1,058
237,50	0,421
240,00	0,355
242,50	-0,118
245,00	0,715
247,50	1,704
250,00	0,534
252,50	1,490
255,00	2,954
257,50	2,564
260,00	1,375
262,50	1,895
265,00	1,044
267,50	0,274
270,00	0,967
272,50	2,071
275,00	1,716
277,50	0,990
280,00	0,361
282,50	0,165
285,00	0,226
287,50	0,268
290,00	0,289
292,50	0,270
295,00	0,249
297,50	0,267
300,00	0,269
302,50	0,266
305,00	0,263
307,50	0,261
310,00	0,258
312,50	0,255
315,00	0,252
317,50	0,249
320,00	0,246
322,50	0,243
325,00	0,240
327,50	0,238
330,00	0,235
332,50	0,233
335,00	0,232
337,50	0,230
340,00	0,229
342,50	0,228
345,00	0,226
347,50	0,225
350,00	0,225
352,50	0,225
355,00	0,224
357,50	0,223
360,00	0,222
362,50	0,221
365,00	0,221
367,50	0,219
370,00	0,218
372,50	0,218
375,00	0,217
377,50	0,216
380,00	0,215
382,50	0,213
385,00	0,212
387,50	0,211
390,00	0,209
392,50	0,208
395,00	0,207
397,50	0,206
400,00	0,205
402,50	0,204
405,00	0,203
407,50	0,202
410,00	0,201
412,50	0,200
415,00	0,199
417,50	0,199
420,00	0,198
422,50	0,197
425,00	0,196
427,50	0,196
430,00	0,195
432,50	0,195
435,00	0,195
437,50	0,195
440,00	0,194
442,50	0,194
445,00	0,194
447,50	0,195
450,00	0,195
452,50	0,195
455,00	0,196
457,50	0,197
460,00	0,198
462,50	0,199
465,00	0,200
467,50	0,202
470,00	0,204
472,50	0,206
475,00	0,209
477,50	0,212
480,00	0,215
482,50	0,220
485,00	0,225
487,50	0,231
490,00	0,237
492,50	0,245
495,00	0,253
497,50	0,262
500,00	0,271
502,50	0,281
505,00	0,290
507,50	0,299
510,00	0,307
512,50	0,315
515,00	0,322
517,50	0,327
520,00	0,330
522,50	0,332
525,00	0,333
527,50	0,331
530,00	0,329
532,50	0,326
535,00	0,321
537,50	0,315
540,00	0,309
542,50	0,302
545,00	0,294
547,50	0,286
550,00	0,278
552,50	0,269
555,00	0,261
557,50	0,252
560,00	0,243
562,50	0,234
565,00	0,225
567,50	0,216
570,00	0,208
572,50	0,200
575,00	0,192
577,50	0,184
580,00	0,177
582,50	0,170
585,00	0,163
587,50	0,156
590,00	0,149
592,50	0,143
595,00	0,137
597,50	0,131
600,00	0,126
602,50	0,121
605,00	0,116
607,50	0,112
610,00	0,107
612,50	0,103
615,00	0,099
617,50	0,095
620,00	0,092
622,50	0,089
625,00	0,086
627,50	0,083
630,00	0,080
632,50	0,077
635,00	0,075
637,50	0,072
640,00	0,070
642,50	0,068
645,00	0,066
647,50	0,064
650,00	0,062
652,50	0,060
655,00	0,058
657,50	0,057
660,00	0,056
662,50	0,054
665,00	0,053
667,50	0,051
670,00	0,050
672,50	0,049
675,00	0,048
677,50	0,047
680,00	0,046
682,50	0,045
685,00	0,044
687,50	0,044
690,00	0,043
692,50	0,042
695,00	0,041
697,50	0,040
700,00	0,040
702,50	0,039
705,00	0,038
707,50	0,038
710,00	0,037
712,50	0,037
715,00	0,036
717,50	0,035
720,00	0,035
722,50	0,034
725,00	0,034
727,50	0,033
730,00	0,033
732,50	0,033
735,00	0,032
737,50	0,032
740,00	0,032
742,50	0,031
745,00	0,031
747,50	0,031
750,00	0,030
752,50	0,030
755,00	0,029
757,50	0,029
760,00	0,029
762,50	0,029
765,00	0,028
767,50	0,028
770,00	0,028
772,50	0,027
775,00	0,027
777,50	0,027
780,00	0,027
782,50	0,027
785,00	0,027
787,50	0,026
790,00	0,026
792,50	0,026
795,00	0,026
797,50	0,026
800,00	0,026