Folder: Sintesis_Nanoparticulas_Oro/Lambda max, Extincion max y Area/citrato/1.20

Note: README.md
# Sintesis_Nanoparticulas_Oro

File: 1.21.txt
"1.2 - Dataset 195214"
"Wavelength nm."	"Abs."
200,00	3,260
202,50	3,260
205,00	3,821
207,50	2,766
210,00	1,551
212,50	1,883
215,00	3,240
217,50	1,543
220,00	1,642
222,50	1,893
225,00	1,265
227,50	0,557
230,00	0,881
232,50	3,226
235,00	1,921
237,50	-0,106
240,00	0,687
242,50	0,164
245,00	0,334
247,50	0,607
250,00	1,349
252,50	1,365
255,00	0,624
257,50	0,838
260,00	1,395
262,50	1,431
265,00	1,574
267,50	0,979
270,00	0,118
272,50	2,014
275,00	3,067
277,50	1,638
280,00	-0,080
282,50	0,129
285,00	0,224
287,50	0,248
290,00	0,285
292,50	0,265
295,00	0,242
297,50	0,259
300,00	0,259
302,50	0,258
305,00	0,257
307,50	0,254
310,00	0,251
312,50	0,248
315,00	0,245
317,50	0,242
320,00	0,240
322,50	0,238
325,00	0,236
327,50	0,234
330,00	0,232
332,50	0,230
335,00	0,230
337,50	0,228
340,00	0,227
342,50	0,226
345,00	0,225
347,50	0,224
350,00	0,223
352,50	0,223
355,00	0,222
357,50	0,221
360,00	0,220
362,50	0,219
365,00	0,218
367,50	0,216
370,00	0,215
372,50	0,214
375,00	0,213
377,50	0,212
380,00	0,211
382,50	0,209
385,00	0,208
387,50	0,207
390,00	0,205
392,50	0,204
395,00	0,203
397,50	0,202
400,00	0,201
402,50	0,200
405,00	0,199
407,50	0,198
410,00	0,197
412,50	0,197
415,00	0,196
417,50	0,196
420,00	0,195
422,50	0,194
425,00	0,194
427,50	0,194
430,00	0,193
432,50	0,193
435,00	0,193
437,50	0,193
440,00	0,194
442,50	0,194
445,00	0,194
447,50	0,195
450,00	0,196
452,50	0,197
455,00	0,198
457,50	0,199
460,00	0,200
462,50	0,202
465,00	0,204
467,50	0,207
470,00	0,209
472,50	0,212
475,00	0,216
477,50	0,219
480,00	0,224
482,50	0,229
485,00	0,234
487,50	0,241
490,00	0,248
492,50	0,255
495,00	0,263
497,50	0,272
500,00	0,280
502,50	0,288
505,00	0,296
507,50	0,303
510,00	0,309
512,50	0,314
515,00	0,318
517,50	0,320
520,00	0,319
522,50	0,317
525,00	0,312
527,50	0,306
530,00	0,298
532,50	0,288
535,00	0,277
537,50	0,266
540,00	0,253
542,50	0,240
545,00	0,226
547,50	0,213
550,00	0,201
552,50	0,189
555,00	0,177
557,50	0,166
560,00	0,156
562,50	0,146
565,00	0,137
567,50	0,128
570,00	0,120
572,50	0,113
575,00	0,107
577,50	0,101
580,00	0,096
582,50	0,090
585,00	0,086
587,50	0,081
590,00	0,077
592,50	0,073
595,00	0,070
597,50	0,067
600,00	0,064
602,50	0,061
605,00	0,059
607,50	0,056
610,00	0,054
612,50	0,052
615,00	0,050
617,50	0,049
620,00	0,047
622,50	0,045
625,00	0,044
627,50	0,043
630,00	0,042
632,50	0,040
635,00	0,039
637,50	0,038
640,00	0,037
642,50	0,036
645,00	0,036
647,50	0,035
650,00	0,034
652,50	0,033
655,00	0,032
657,50	0,032
660,00	0,031
662,50	0,031
665,00	0,030
667,50	0,029
670,00	0,029
672,50	0,029
675,00	0,028
677,50	0,028
680,00	0,027
682,50	0,027
685,00	0,027
687,50	0,026
690,00	0,026
692,50	0,026
695,00	0,025
697,50	0,025
700,00	0,025
702,50	0,025
705,00	0,024
707,50	0,024
710,00	0,024
712,50	0,023
715,00	0,023
717,50	0,023
720,00	0,022
722,50	0,022
725,00	0,022
727,50	0,022
730,00	0,022
732,50	0,021
735,00	0,021
737,50	0,021
740,00	0,021
742,50	0,021
745,00	0,021
747,50	0,021
750,00	0,020
752,50	0,020
755,00	0,020
757,50	0,020
760,00	0,020
762,50	0,020
765,00	0,019
767,50	0,019
770,00	0,019
772,50	0,019
775,00	0,018
777,50	0,018
780,00	0,018
782,50	0,019
785,00	0,019
787,50	0,019
790,00	0,019
792,50	0,018
795,00	0,018
797,50	0,018
800,00	0,018