Folder: Sintesis_Nanoparticulas_Oro/Lambda max, Extincion max y Area/citrato/1.40

Note: README.md
# Sintesis_Nanoparticulas_Oro

File: 1.39.txt
"1.4ml - Dataset 231550"
"Wavelength nm."	"Abs."
200,00	1,166
202,50	1,166
205,00	1,280
207,50	1,641
210,00	1,629
212,50	1,483
215,00	0,830
217,50	0,195
220,00	0,429
222,50	1,569
225,00	0,853
227,50	0,177
230,00	2,790
232,50	2,199
235,00	0,340
237,50	1,495
240,00	0,712
242,50	1,719
245,00	1,335
247,50	-0,095
250,00	1,283
252,50	2,367
255,00	2,327
257,50	0,822
260,00	0,440
262,50	0,027
265,00	1,617
267,50	2,579
270,00	1,300
272,50	1,070
275,00	0,993
277,50	0,195
280,00	0,022
282,50	0,276
285,00	0,348
287,50	0,291
290,00	0,184
292,50	0,209
295,00	0,320
297,50	0,291
300,00	0,273
302,50	0,287
305,00	0,284
307,50	0,267
310,00	0,258
312,50	0,250
315,00	0,255
317,50	0,257
320,00	0,243
322,50	0,244
325,00	0,248
327,50	0,241
330,00	0,241
332,50	0,244
335,00	0,234
337,50	0,229
340,00	0,233
342,50	0,238
345,00	0,232
347,50	0,232
350,00	0,230
352,50	0,233
355,00	0,231
357,50	0,223
360,00	0,223
362,50	0,222
365,00	0,224
367,50	0,224
370,00	0,220
372,50	0,221
375,00	0,215
377,50	0,215
380,00	0,218
382,50	0,215
385,00	0,211
387,50	0,213
390,00	0,214
392,50	0,215
395,00	0,211
397,50	0,209
400,00	0,208
402,50	0,206
405,00	0,206
407,50	0,203
410,00	0,202
412,50	0,203
415,00	0,201
417,50	0,200
420,00	0,199
422,50	0,197
425,00	0,198
427,50	0,198
430,00	0,197
432,50	0,198
435,00	0,199
437,50	0,198
440,00	0,198
442,50	0,197
445,00	0,197
447,50	0,200
450,00	0,199
452,50	0,199
455,00	0,200
457,50	0,202
460,00	0,203
462,50	0,206
465,00	0,209
467,50	0,210
470,00	0,214
472,50	0,217
475,00	0,220
477,50	0,223
480,00	0,229
482,50	0,236
485,00	0,238
487,50	0,244
490,00	0,253
492,50	0,259
495,00	0,267
497,50	0,274
500,00	0,281
502,50	0,290
505,00	0,299
507,50	0,305
510,00	0,310
512,50	0,312
515,00	0,316
517,50	0,317
520,00	0,315
522,50	0,314
525,00	0,311
527,50	0,305
530,00	0,297
532,50	0,287
535,00	0,274
537,50	0,263
540,00	0,251
542,50	0,238
545,00	0,228
547,50	0,216
550,00	0,203
552,50	0,190
555,00	0,176
557,50	0,165
560,00	0,154
562,50	0,142
565,00	0,133
567,50	0,127
570,00	0,118
572,50	0,110
575,00	0,104
577,50	0,098
580,00	0,092
582,50	0,087
585,00	0,081
587,50	0,075
590,00	0,071
592,50	0,069
595,00	0,067
597,50	0,062
600,00	0,056
602,50	0,053
605,00	0,052
607,50	0,051
610,00	0,049
612,50	0,046
615,00	0,045
617,50	0,041
620,00	0,038
622,50	0,039
625,00	0,037
627,50	0,034
630,00	0,033
632,50	0,032
635,00	0,032
637,50	0,030
640,00	0,031
642,50	0,030
645,00	0,029
647,50	0,026
650,00	0,025
652,50	0,024
655,00	0,022
657,50	0,024
660,00	0,024
662,50	0,022
665,00	0,021
667,50	0,021
670,00	0,021
672,50	0,021
675,00	0,021
677,50	0,018
680,00	0,018
682,50	0,018
685,00	0,017
687,50	0,019
690,00	0,017
692,50	0,015
695,00	0,017
697,50	0,015
700,00	0,013
702,50	0,015
705,00	0,017
707,50	0,015
710,00	0,012
712,50	0,015
715,00	0,016
717,50	0,015
720,00	0,016
722,50	0,015
725,00	0,015
727,50	0,016
730,00	0,013
732,50	0,013
735,00	0,014
737,50	0,011
740,00	0,013
742,50	0,013
745,00	0,012
747,50	0,014
750,00	0,015
752,50	0,012
755,00	0,012
757,50	0,015
760,00	0,016
762,50	0,012
765,00	0,009
767,50	0,009
770,00	0,012
772,50	0,011
775,00	0,009
777,50	0,010
780,00	0,012
782,50	0,009
785,00	0,009
787,50	0,012
790,00	0,014
792,50	0,008
795,00	0,012
797,50	0,013
800,00	0,013