Folder: Sintesis_Nanoparticulas_Oro/Lambda max, Extincion max y Area/citrato/1.60

Note: README.md
# Sintesis_Nanoparticulas_Oro

File: 1.61.txt
"1.6_2 - Dataset 200613"
"Wavelength nm."	"Abs."
200,00	0.588
202,50	0.533
205,00	0.501
207,50	0.477
210,00	0.457
212,50	0.436
215,00	0.417
217,50	0.401
220,00	0.386
222,50	0.372
225,00	0.363
227,50	0.356
230,00	0.35
232,50	0.344
235,00	0.341
237,50	0.338
240,00	0.336
242,50	0.332
245,00	0.331
247,50	0.328
250,00	0.326
252,50	0.324
255,00	0.321
257,50	0.317
260,00	0.314
262,50	0.309
265,00	0.305
267,50	0.299
270,00	0.294
272,50	0.288
275,00	0.281
277,50	0.274
280,00	0.269
282,50	0.263
285,00	0.257
287,50	0.252
290,00	0.247
292,50	0.241
295,00	0.237
297,50	0.231
300,00	0.23
302,50	0.225
305,00	0.221
307,50	0.216
310,00	0.213
312,50	0.213
315,00	0.209
317,50	0.204
320,00	0.201
322,50	0.202
325,00	0.198
327,50	0.197
330,00	0.197
332,50	0.195
335,00	0.193
337,50	0.192
340,00	0.191
342,50	0.191
345,00	0.19
347,50	0.189
350,00	0.189
352,50	0.189
355,00	0.187
357,50	0.186
360,00	0.186
362,50	0.183
365,00	0.183
367,50	0.183
370,00	0.181
372,50	0.18
375,00	0.179
377,50	0.179
380,00	0.178
382,50	0.177
385,00	0.176
387,50	0.174
390,00	0.172
392,50	0.172
395,00	0.172
397,50	0.17
400,00	0.17
402,50	0.169
405,00	0.168
407,50	0.167
410,00	0.167
412,50	0.166
415,00	0.166
417,50	0.165
420,00	0.165
422,50	0.164
425,00	0.164
427,50	0.163
430,00	0.163
432,50	0.163
435,00	0.163
437,50	0.163
440,00	0.164
442,50	0.164
445,00	0.164
447,50	0.165
450,00	0.165
452,50	0.167
455,00	0.167
457,50	0.169
460,00	0.171
462,50	0.172
465,00	0.174
467,50	0.177
470,00	0.179
472,50	0.181
475,00	0.185
477,50	0.189
480,00	0.192
482,50	0.197
485,00	0.202
487,50	0.207
490,00	0.213
492,50	0.22
495,00	0.227
497,50	0.234
500,00	0.241
502,50	0.248
505,00	0.254
507,50	0.26
510,00	0.265
512,50	0.269
515,00	0.271
517,50	0.272
520,00	0.272
522,50	0.269
525,00	0.265
527,50	0.259
530,00	0.252
532,50	0.244
535,00	0.234
537,50	0.224
540,00	0.212
542,50	0.2
545,00	0.188
547,50	0.176
550,00	0.164
552,50	0.153
555,00	0.143
557,50	0.133
560,00	0.123
562,50	0.114
565,00	0.106
567,50	0.098
570,00	0.09
572,50	0.084
575,00	0.077
577,50	0.071
580,00	0.065
582,50	0.061
585,00	0.056
587,50	0.052
590,00	0.048
592,50	0.044
595,00	0.041
597,50	0.038
600,00	0.035
602,50	0.033
605,00	0.03
607,50	0.028
610,00	0.026
612,50	0.024
615,00	0.022
617,50	0.02
620,00	0.02
622,50	0.017
625,00	0.016
627,50	0.015
630,00	0.014
632,50	0.013
635,00	0.012
637,50	0.011
640,00	0.01
642,50	0.009
645,00	0.008
647,50	0.008
650,00	0.007
652,50	0.007
655,00	0.005
657,50	0.005
660,00	0.005
662,50	0.004
665,00	0.004
667,50	0.003
670,00	0.003
672,50	0.002
675,00	0.002
677,50	0.001
680,00	0.001
682,50	0.001
685,00	0
687,50	0
690,00	-0.001
692,50	0
695,00	-0.001
697,50	-0.001
700,00	-0.001
702,50	-0.001
705,00	-0.001
707,50	-0.001
710,00	-0.001
712,50	-0.002
715,00	-0.002
717,50	-0.002
720,00	-0.002
722,50	-0.002
725,00	-0.002
727,50	-0.002
730,00	-0.003
732,50	-0.002
735,00	-0.003
737,50	-0.003
740,00	-0.004
742,50	-0.002
745,00	-0.003
747,50	-0.003
750,00	-0.003
752,50	-0.003
755,00	-0.004
757,50	-0.003
760,00	-0.004
762,50	-0.003
765,00	-0.004
767,50	-0.004
770,00	-0.004
772,50	-0.003
775,00	-0.003
777,50	-0.003
780,00	-0.003
782,50	-0.003
785,00	-0.004
787,50	-0.004
790,00	-0.004
792,50	-0.004
795,00	-0.004
797,50	-0.005
800,00	-0.005