Folder: Sintesis_Nanoparticulas_Oro/Espectro Uv-Vis/oro/1

Note: README.md
# Sintesis_Nanoparticulas_Oro

File: 7.66e-4.txt
"7.66e-4 - Dataset 185905"
"Wavelength nm."	"Abs."
200,00	1,888
202,50	1,888
205,00	1,845
207,50	3,150
210,00	2,181
212,50	3,080
215,00	4,575
217,50	3,274
220,00	1,499
222,50	1,324
225,00	1,491
227,50	1,652
230,00	1,241
232,50	2,143
235,00	2,390
237,50	1,202
240,00	2,350
242,50	1,691
245,00	1,311
247,50	1,559
250,00	0,730
252,50	1,691
255,00	1,462
257,50	-0,129
260,00	-0,076
262,50	1,041
265,00	2,457
267,50	1,073
270,00	1,842
272,50	2,852
275,00	2,340
277,50	1,563
280,00	1,267
282,50	0,830
285,00	0,659
287,50	0,662
290,00	0,681
292,50	0,682
295,00	0,664
297,50	0,666
300,00	0,665
302,50	0,662
305,00	0,660
307,50	0,656
310,00	0,652
312,50	0,650
315,00	0,647
317,50	0,643
320,00	0,639
322,50	0,636
325,00	0,631
327,50	0,627
330,00	0,622
332,50	0,617
335,00	0,613
337,50	0,608
340,00	0,604
342,50	0,599
345,00	0,595
347,50	0,592
350,00	0,590
352,50	0,588
355,00	0,587
357,50	0,587
360,00	0,587
362,50	0,587
365,00	0,587
367,50	0,586
370,00	0,586
372,50	0,585
375,00	0,585
377,50	0,584
380,00	0,583
382,50	0,582
385,00	0,581
387,50	0,579
390,00	0,578
392,50	0,576
395,00	0,574
397,50	0,572
400,00	0,570
402,50	0,568
405,00	0,566
407,50	0,564
410,00	0,562
412,50	0,559
415,00	0,557
417,50	0,555
420,00	0,552
422,50	0,550
425,00	0,548
427,50	0,545
430,00	0,543
432,50	0,540
435,00	0,538
437,50	0,536
440,00	0,533
442,50	0,531
445,00	0,528
447,50	0,525
450,00	0,522
452,50	0,520
455,00	0,517
457,50	0,515
460,00	0,513
462,50	0,511
465,00	0,509
467,50	0,507
470,00	0,505
472,50	0,504
475,00	0,503
477,50	0,502
480,00	0,503
482,50	0,504
485,00	0,507
487,50	0,511
490,00	0,516
492,50	0,524
495,00	0,533
497,50	0,545
500,00	0,558
502,50	0,573
505,00	0,589
507,50	0,606
510,00	0,624
512,50	0,642
515,00	0,661
517,50	0,680
520,00	0,698
522,50	0,716
525,00	0,732
527,50	0,747
530,00	0,762
532,50	0,775
535,00	0,787
537,50	0,798
540,00	0,808
542,50	0,816
545,00	0,823
547,50	0,829
550,00	0,834
552,50	0,838
555,00	0,840
557,50	0,842
560,00	0,843
562,50	0,844
565,00	0,844
567,50	0,843
570,00	0,842
572,50	0,840
575,00	0,839
577,50	0,837
580,00	0,835
582,50	0,833
585,00	0,830
587,50	0,828
590,00	0,826
592,50	0,823
595,00	0,821
597,50	0,818
600,00	0,816
602,50	0,813
605,00	0,811
607,50	0,809
610,00	0,806
612,50	0,804
615,00	0,801
617,50	0,799
620,00	0,796
622,50	0,794
625,00	0,792
627,50	0,789
630,00	0,787
632,50	0,784
635,00	0,781
637,50	0,779
640,00	0,776
642,50	0,773
645,00	0,770
647,50	0,768
650,00	0,765
652,50	0,762
655,00	0,759
657,50	0,756
660,00	0,753
662,50	0,750
665,00	0,747
667,50	0,744
670,00	0,740
672,50	0,737
675,00	0,734
677,50	0,730
680,00	0,727
682,50	0,723
685,00	0,719
687,50	0,715
690,00	0,712
692,50	0,708
695,00	0,704
697,50	0,699
700,00	0,695
702,50	0,691
705,00	0,687
707,50	0,682
710,00	0,678
712,50	0,673
715,00	0,669
717,50	0,664
720,00	0,659
722,50	0,655
725,00	0,650
727,50	0,646
730,00	0,641
732,50	0,636
735,00	0,631
737,50	0,626
740,00	0,621
742,50	0,616
745,00	0,611
747,50	0,606
750,00	0,602
752,50	0,596
755,00	0,591
757,50	0,586
760,00	0,581
762,50	0,576
765,00	0,571
767,50	0,566
770,00	0,561
772,50	0,556
775,00	0,551
777,50	0,546
780,00	0,541
782,50	0,536
785,00	0,531
787,50	0,526
790,00	0,521
792,50	0,516
795,00	0,511
797,50	0,509
800,00	0,509