Folder: Sintesis_Nanoparticulas_Oro/Espectro Uv-Vis/oro/2

Note: Espectro Uv-Vis/oro/2/ambos.txt
molaridad,lambda máx,absorbancia,área
5.97E-04,546.5,0.878,56.521
5.73E-04,534,0.791,36.812
6.15E-04,554.5,0.787,54.666

Note: README.md
# Sintesis_Nanoparticulas_Oro

File: 5.97e-4.txt
"5.97e-4 - Dataset 225439"
"Wavelength nm."	"Abs."
200,00	1,755
202,50	1,755
205,00	2,114
207,50	2,200
210,00	1,504
212,50	-0,276
215,00	1,191
217,50	2,715
220,00	4,359
222,50	4,835
225,00	3,245
227,50	2,203
230,00	0,872
232,50	0,714
235,00	2,718
237,50	2,391
240,00	1,061
242,50	0,455
245,00	0,451
247,50	0,177
250,00	1,036
252,50	1,221
255,00	1,306
257,50	2,013
260,00	2,576
262,50	1,366
265,00	-0,029
267,50	1,053
270,00	2,088
272,50	2,655
275,00	2,753
277,50	1,042
280,00	0,452
282,50	0,623
285,00	0,584
287,50	0,815
290,00	1,515
292,50	2,817
295,00	1,967
297,50	0,372
300,00	0,703
302,50	0,675
305,00	0,647
307,50	0,663
310,00	0,630
312,50	0,612
315,00	0,604
317,50	0,615
320,00	0,594
322,50	0,589
325,00	0,591
327,50	0,589
330,00	0,594
332,50	0,592
335,00	0,582
337,50	0,574
340,00	0,564
342,50	0,555
345,00	0,557
347,50	0,550
350,00	0,547
352,50	0,553
355,00	0,550
357,50	0,546
360,00	0,551
362,50	0,547
365,00	0,542
367,50	0,543
370,00	0,539
372,50	0,541
375,00	0,537
377,50	0,535
380,00	0,533
382,50	0,535
385,00	0,538
387,50	0,533
390,00	0,530
392,50	0,527
395,00	0,527
397,50	0,525
400,00	0,519
402,50	0,518
405,00	0,516
407,50	0,516
410,00	0,512
412,50	0,508
415,00	0,505
417,50	0,503
420,00	0,502
422,50	0,498
425,00	0,495
427,50	0,494
430,00	0,490
432,50	0,490
435,00	0,488
437,50	0,482
440,00	0,482
442,50	0,479
445,00	0,476
447,50	0,479
450,00	0,478
452,50	0,477
455,00	0,477
457,50	0,474
460,00	0,470
462,50	0,469
465,00	0,468
467,50	0,470
470,00	0,472
472,50	0,471
475,00	0,473
477,50	0,477
480,00	0,480
482,50	0,482
485,00	0,490
487,50	0,499
490,00	0,509
492,50	0,524
495,00	0,540
497,50	0,557
500,00	0,577
502,50	0,604
505,00	0,625
507,50	0,649
510,00	0,677
512,50	0,703
515,00	0,729
517,50	0,756
520,00	0,780
522,50	0,801
525,00	0,821
527,50	0,834
530,00	0,848
532,50	0,863
535,00	0,872
537,50	0,875
540,00	0,876
542,50	0,878
545,00	0,877
547,50	0,875
550,00	0,870
552,50	0,865
555,00	0,859
557,50	0,845
560,00	0,833
562,50	0,825
565,00	0,811
567,50	0,795
570,00	0,782
572,50	0,768
575,00	0,752
577,50	0,737
580,00	0,725
582,50	0,709
585,00	0,695
587,50	0,685
590,00	0,670
592,50	0,653
595,00	0,637
597,50	0,625
600,00	0,616
602,50	0,601
605,00	0,587
607,50	0,579
610,00	0,569
612,50	0,556
615,00	0,544
617,50	0,538
620,00	0,525
622,50	0,512
625,00	0,504
627,50	0,498
630,00	0,487
632,50	0,475
635,00	0,467
637,50	0,457
640,00	0,445
642,50	0,438
645,00	0,433
647,50	0,423
650,00	0,413
652,50	0,405
655,00	0,398
657,50	0,388
660,00	0,380
662,50	0,374
665,00	0,367
667,50	0,356
670,00	0,348
672,50	0,343
675,00	0,338
677,50	0,327
680,00	0,318
682,50	0,313
685,00	0,309
687,50	0,300
690,00	0,294
692,50	0,287
695,00	0,280
697,50	0,273
700,00	0,267
702,50	0,259
705,00	0,258
707,50	0,255
710,00	0,243
712,50	0,238
715,00	0,233
717,50	0,225
720,00	0,223
722,50	0,224
725,00	0,217
727,50	0,211
730,00	0,207
732,50	0,203
735,00	0,195
737,50	0,189
740,00	0,186
742,50	0,184
745,00	0,181
747,50	0,178
750,00	0,176
752,50	0,170
755,00	0,167
757,50	0,162
760,00	0,158
762,50	0,156
765,00	0,151
767,50	0,149
770,00	0,148
772,50	0,143
775,00	0,144
777,50	0,141
780,00	0,134
782,50	0,130
785,00	0,126
787,50	0,128
790,00	0,125
792,50	0,122
795,00	0,125
797,50	0,120
800,00	0,120