Folder: Sintesis_Nanoparticulas_Oro/Espectro Uv-Vis/oro/3

Note: README.md
# Sintesis_Nanoparticulas_Oro

File: 4.91e-4.txt
"4.91e-4 - Dataset 211817"
"Wavelength nm."	"Abs."
200,00	2,426
202,50	2,426
205,00	2,549
207,50	2,030
210,00	3,513
212,50	3,390
215,00	2,849
217,50	2,275
220,00	2,553
222,50	2,643
225,00	1,759
227,50	3,599
230,00	2,714
232,50	1,992
235,00	2,855
237,50	2,595
240,00	3,127
242,50	2,383
245,00	0,549
247,50	0,836
250,00	1,564
252,50	1,519
255,00	4,279
257,50	5,061
260,00	4,207
262,50	3,967
265,00	2,720
267,50	2,232
270,00	1,337
272,50	2,030
275,00	1,763
277,50	3,033
280,00	1,786
282,50	0,148
285,00	0,655
287,50	0,177
290,00	1,991
292,50	3,236
295,00	1,088
297,50	0,567
300,00	0,611
302,50	0,587
305,00	0,546
307,50	0,544
310,00	0,537
312,50	0,515
315,00	0,509
317,50	0,504
320,00	0,495
322,50	0,493
325,00	0,491
327,50	0,494
330,00	0,483
332,50	0,479
335,00	0,467
337,50	0,464
340,00	0,461
342,50	0,453
345,00	0,456
347,50	0,451
350,00	0,449
352,50	0,449
355,00	0,446
357,50	0,450
360,00	0,449
362,50	0,451
365,00	0,447
367,50	0,440
370,00	0,437
372,50	0,434
375,00	0,436
377,50	0,433
380,00	0,429
382,50	0,426
385,00	0,422
387,50	0,419
390,00	0,417
392,50	0,418
395,00	0,416
397,50	0,415
400,00	0,411
402,50	0,403
405,00	0,404
407,50	0,402
410,00	0,397
412,50	0,397
415,00	0,395
417,50	0,394
420,00	0,395
422,50	0,388
425,00	0,384
427,50	0,386
430,00	0,386
432,50	0,383
435,00	0,382
437,50	0,382
440,00	0,382
442,50	0,379
445,00	0,379
447,50	0,382
450,00	0,380
452,50	0,380
455,00	0,380
457,50	0,379
460,00	0,381
462,50	0,384
465,00	0,387
467,50	0,388
470,00	0,391
472,50	0,394
475,00	0,398
477,50	0,404
480,00	0,412
482,50	0,419
485,00	0,429
487,50	0,439
490,00	0,450
492,50	0,465
495,00	0,485
497,50	0,506
500,00	0,523
502,50	0,544
505,00	0,568
507,50	0,592
510,00	0,614
512,50	0,635
515,00	0,655
517,50	0,671
520,00	0,688
522,50	0,701
525,00	0,712
527,50	0,717
530,00	0,718
532,50	0,719
535,00	0,715
537,50	0,710
540,00	0,701
542,50	0,689
545,00	0,674
547,50	0,661
550,00	0,645
552,50	0,623
555,00	0,604
557,50	0,579
560,00	0,557
562,50	0,533
565,00	0,506
567,50	0,483
570,00	0,458
572,50	0,433
575,00	0,409
577,50	0,384
580,00	0,362
582,50	0,340
585,00	0,320
587,50	0,301
590,00	0,282
592,50	0,267
595,00	0,248
597,50	0,234
600,00	0,220
602,50	0,205
605,00	0,192
607,50	0,181
610,00	0,171
612,50	0,163
615,00	0,152
617,50	0,142
620,00	0,137
622,50	0,130
625,00	0,122
627,50	0,117
630,00	0,110
632,50	0,105
635,00	0,101
637,50	0,095
640,00	0,091
642,50	0,088
645,00	0,085
647,50	0,082
650,00	0,077
652,50	0,074
655,00	0,072
657,50	0,069
660,00	0,067
662,50	0,063
665,00	0,061
667,50	0,059
670,00	0,057
672,50	0,057
675,00	0,057
677,50	0,052
680,00	0,049
682,50	0,050
685,00	0,049
687,50	0,049
690,00	0,048
692,50	0,045
695,00	0,044
697,50	0,041
700,00	0,038
702,50	0,038
705,00	0,038
707,50	0,040
710,00	0,040
712,50	0,039
715,00	0,039
717,50	0,039
720,00	0,035
722,50	0,037
725,00	0,037
727,50	0,034
730,00	0,034
732,50	0,034
735,00	0,032
737,50	0,030
740,00	0,029
742,50	0,033
745,00	0,035
747,50	0,029
750,00	0,029
752,50	0,034
755,00	0,029
757,50	0,029
760,00	0,030
762,50	0,026
765,00	0,026
767,50	0,025
770,00	0,026
772,50	0,026
775,00	0,025
777,50	0,026
780,00	0,026
782,50	0,024
785,00	0,024
787,50	0,023
790,00	0,025
792,50	0,026
795,00	0,024
797,50	0,024
800,00	0,024