Folder: Sintesis_Nanoparticulas_Oro/Espectro Uv-Vis/oro/5

Note: Espectro Uv-Vis/oro/5/ambos.txt
molaridad,lambda máx,absorbancia,área
3.86E-04,529.5,0.564,37.421
3.97E-04,526,0.495,19.309
3.81E-04,526,0.512,23.495

Note: README.md
# Sintesis_Nanoparticulas_Oro

File: 3.81e-4.txt
"3.81e-4 - Dataset 212157"
"Wavelength nm."	"Abs."
200,00	2,887
202,50	2,887
205,00	3,269
207,50	5,211
210,00	3,150
212,50	1,552
215,00	2,355
217,50	2,676
220,00	3,156
222,50	3,209
225,00	2,608
227,50	2,782
230,00	3,529
232,50	3,214
235,00	2,277
237,50	2,387
240,00	3,275
242,50	4,349
245,00	2,234
247,50	1,721
250,00	2,291
252,50	1,735
255,00	1,557
257,50	2,839
260,00	2,698
262,50	3,369
265,00	4,117
267,50	2,521
270,00	1,956
272,50	-0,135
275,00	1,656
277,50	1,901
280,00	-0,026
282,50	0,588
285,00	0,476
287,50	0,452
290,00	0,455
292,50	0,445
295,00	0,442
297,50	0,435
300,00	0,426
302,50	0,418
305,00	0,413
307,50	0,407
310,00	0,400
312,50	0,394
315,00	0,389
317,50	0,384
320,00	0,377
322,50	0,372
325,00	0,368
327,50	0,364
330,00	0,360
332,50	0,356
335,00	0,354
337,50	0,350
340,00	0,347
342,50	0,345
345,00	0,344
347,50	0,342
350,00	0,341
352,50	0,340
355,00	0,339
357,50	0,338
360,00	0,338
362,50	0,337
365,00	0,335
367,50	0,334
370,00	0,332
372,50	0,330
375,00	0,329
377,50	0,327
380,00	0,325
382,50	0,323
385,00	0,321
387,50	0,319
390,00	0,317
392,50	0,315
395,00	0,313
397,50	0,311
400,00	0,309
402,50	0,307
405,00	0,305
407,50	0,304
410,00	0,302
412,50	0,301
415,00	0,300
417,50	0,298
420,00	0,297
422,50	0,296
425,00	0,295
427,50	0,294
430,00	0,293
432,50	0,293
435,00	0,292
437,50	0,291
440,00	0,291
442,50	0,291
445,00	0,291
447,50	0,291
450,00	0,291
452,50	0,291
455,00	0,292
457,50	0,293
460,00	0,294
462,50	0,295
465,00	0,297
467,50	0,300
470,00	0,302
472,50	0,306
475,00	0,310
477,50	0,314
480,00	0,320
482,50	0,326
485,00	0,334
487,50	0,343
490,00	0,353
492,50	0,365
495,00	0,378
497,50	0,392
500,00	0,407
502,50	0,422
505,00	0,437
507,50	0,452
510,00	0,465
512,50	0,478
515,00	0,490
517,50	0,499
520,00	0,506
522,50	0,510
525,00	0,512
527,50	0,512
530,00	0,510
532,50	0,506
535,00	0,501
537,50	0,494
540,00	0,485
542,50	0,476
545,00	0,465
547,50	0,453
550,00	0,440
552,50	0,427
555,00	0,413
557,50	0,399
560,00	0,385
562,50	0,370
565,00	0,355
567,50	0,340
570,00	0,325
572,50	0,311
575,00	0,297
577,50	0,284
580,00	0,271
582,50	0,259
585,00	0,247
587,50	0,235
590,00	0,224
592,50	0,213
595,00	0,203
597,50	0,193
600,00	0,185
602,50	0,176
605,00	0,168
607,50	0,161
610,00	0,153
612,50	0,147
615,00	0,140
617,50	0,134
620,00	0,128
622,50	0,123
625,00	0,118
627,50	0,113
630,00	0,109
632,50	0,104
635,00	0,100
637,50	0,097
640,00	0,093
642,50	0,089
645,00	0,086
647,50	0,083
650,00	0,080
652,50	0,078
655,00	0,075
657,50	0,073
660,00	0,070
662,50	0,068
665,00	0,066
667,50	0,065
670,00	0,063
672,50	0,062
675,00	0,060
677,50	0,058
680,00	0,057
682,50	0,055
685,00	0,054
687,50	0,053
690,00	0,051
692,50	0,050
695,00	0,049
697,50	0,048
700,00	0,047
702,50	0,046
705,00	0,045
707,50	0,044
710,00	0,044
712,50	0,043
715,00	0,042
717,50	0,041
720,00	0,040
722,50	0,040
725,00	0,039
727,50	0,038
730,00	0,038
732,50	0,037
735,00	0,036
737,50	0,036
740,00	0,036
742,50	0,035
745,00	0,035
747,50	0,034
750,00	0,034
752,50	0,033
755,00	0,033
757,50	0,032
760,00	0,032
762,50	0,032
765,00	0,031
767,50	0,031
770,00	0,031
772,50	0,030
775,00	0,029
777,50	0,029
780,00	0,029
782,50	0,029
785,00	0,029
787,50	0,029
790,00	0,029
792,50	0,028
795,00	0,028
797,50	0,028
800,00	0,028

File: 3.86e-4.txt
"3.86e-4_212141 - RawData"
"Wavelength nm."	"Abs."
200,00	0,614
202,50	0,601
205,00	0,598
207,50	0,593
210,00	0,589
212,50	0,586
215,00	0,584
217,50	0,581
220,00	0,577
222,50	0,576
225,00	0,572
227,50	0,571
230,00	0,569
232,50	0,568
235,00	0,567
237,50	0,568
240,00	0,569
242,50	0,572
245,00	0,574
247,50	0,577
250,00	0,580
252,50	0,583
255,00	0,586
257,50	0,588
260,00	0,592
262,50	0,591
265,00	0,591
267,50	0,590
270,00	0,588
272,50	0,584
275,00	0,580
277,50	0,574
280,00	0,569
282,50	0,563
285,00	0,557
287,50	0,552
290,00	0,546
292,50	0,505
295,00	0,528
297,50	0,528
300,00	0,536
302,50	0,529
305,00	0,472
307,50	0,496
310,00	0,485
312,50	0,503
315,00	0,483
317,50	0,481
320,00	0,476
322,50	0,450
325,00	0,449
327,50	0,445
330,00	0,436
332,50	0,455
335,00	0,447
337,50	0,459
340,00	0,423
342,50	0,429
345,00	0,420
347,50	0,418
350,00	0,403
352,50	0,428
355,00	0,417
357,50	0,419
360,00	0,417
362,50	0,421
365,00	0,412
367,50	0,423
370,00	0,426
372,50	0,416
375,00	0,400
377,50	0,411
380,00	0,412
382,50	0,403
385,00	0,398
387,50	0,394
390,00	0,399
392,50	0,401
395,00	0,396
397,50	0,401
400,00	0,391
402,50	0,390
405,00	0,386
407,50	0,385
410,00	0,379
412,50	0,382
415,00	0,374
417,50	0,376
420,00	0,373
422,50	0,359
425,00	0,361
427,50	0,371
430,00	0,362
432,50	0,364
435,00	0,356
437,50	0,361
440,00	0,356
442,50	0,359
445,00	0,360
447,50	0,355
450,00	0,352
452,50	0,356
455,00	0,360
457,50	0,355
460,00	0,353
462,50	0,354
465,00	0,356
467,50	0,360
470,00	0,362
472,50	0,365
475,00	0,366
477,50	0,362
480,00	0,368
482,50	0,381
485,00	0,393
487,50	0,400
490,00	0,397
492,50	0,426
495,00	0,437
497,50	0,455
500,00	0,469
502,50	0,499
505,00	0,508
507,50	0,531
510,00	0,554
512,50	0,585
515,00	0,598
517,50	0,616
520,00	0,648
522,50	0,658
525,00	0,674
527,50	0,675
530,00	0,685
532,50	0,691
535,00	0,680
537,50	0,693
540,00	0,695
542,50	0,697
545,00	0,684
547,50	0,676
550,00	0,670
552,50	0,657
555,00	0,639
557,50	0,639
560,00	0,624
562,50	0,602
565,00	0,585
567,50	0,561
570,00	0,545
572,50	0,526
575,00	0,503
577,50	0,483
580,00	0,461
582,50	0,443
585,00	0,423
587,50	0,402
590,00	0,384
592,50	0,364
595,00	0,342
597,50	0,325
600,00	0,317
602,50	0,292
605,00	0,276
607,50	0,261
610,00	0,245
612,50	0,238
615,00	0,224
617,50	0,211
620,00	0,197
622,50	0,187
625,00	0,177
627,50	0,168
630,00	0,160
632,50	0,148
635,00	0,147
637,50	0,134
640,00	0,124
642,50	0,130
645,00	0,120
647,50	0,105
650,00	0,098
652,50	0,097
655,00	0,092
657,50	0,088
660,00	0,084
662,50	0,087
665,00	0,079
667,50	0,070
670,00	0,062
672,50	0,069
675,00	0,066
677,50	0,070
680,00	0,066
682,50	0,054
685,00	0,057
687,50	0,053
690,00	0,054
692,50	0,044
695,00	0,041
697,50	0,050
700,00	0,034
702,50	0,045
705,00	0,051
707,50	0,041
710,00	0,037
712,50	0,031
715,00	0,041
717,50	0,042
720,00	0,031
722,50	0,028
725,00	0,023
727,50	0,031
730,00	0,027
732,50	0,039
735,00	0,030
737,50	0,019
740,00	0,025
742,50	0,028
745,00	0,028
747,50	0,021
750,00	0,016
752,50	0,027
755,00	0,023
757,50	0,020
760,00	0,028
762,50	0,018
765,00	0,023
767,50	0,017
770,00	0,019
772,50	0,022
775,00	0,017
777,50	0,017
780,00	0,016
782,50	0,016
785,00	0,017
787,50	0,016
790,00	0,018
792,50	0,022
795,00	0,016
797,50	0,013
800,00	0,015

File: 3.97e-4.txt
"3.97e-4 - Dataset 212515"
"Wavelength nm."	"Abs."
200,00	3,710
202,50	3,710
205,00	3,215
207,50	4,929
210,00	3,813
212,50	2,160
215,00	2,223
217,50	0,960
220,00	0,894
222,50	2,374
225,00	2,611
227,50	2,806
230,00	3,686
232,50	3,342
235,00	1,929
237,50	3,099
240,00	2,590
242,50	2,533
245,00	2,547
247,50	2,792
250,00	1,917
252,50	1,296
255,00	2,835
257,50	1,362
260,00	2,093
262,50	4,458
265,00	3,503
267,50	1,151
270,00	3,187
272,50	3,266
275,00	1,371
277,50	0,508
280,00	0,963
282,50	1,103
285,00	0,184
287,50	0,300
290,00	1,506
292,50	3,248
295,00	1,776
297,50	-0,009
300,00	0,443
302,50	0,449
305,00	0,432
307,50	0,419
310,00	0,423
312,50	0,405
315,00	0,409
317,50	0,411
320,00	0,398
322,50	0,385
325,00	0,379
327,50	0,371
330,00	0,370
332,50	0,369
335,00	0,361
337,50	0,358
340,00	0,356
342,50	0,359
345,00	0,355
347,50	0,356
350,00	0,355
352,50	0,351
355,00	0,350
357,50	0,349
360,00	0,348
362,50	0,345
365,00	0,346
367,50	0,345
370,00	0,339
372,50	0,339
375,00	0,338
377,50	0,335
380,00	0,339
382,50	0,336
385,00	0,329
387,50	0,327
390,00	0,322
392,50	0,322
395,00	0,321
397,50	0,323
400,00	0,322
402,50	0,316
405,00	0,314
407,50	0,312
410,00	0,310
412,50	0,311
415,00	0,307
417,50	0,305
420,00	0,307
422,50	0,304
425,00	0,300
427,50	0,299
430,00	0,298
432,50	0,298
435,00	0,297
437,50	0,297
440,00	0,296
442,50	0,295
445,00	0,295
447,50	0,295
450,00	0,295
452,50	0,296
455,00	0,297
457,50	0,298
460,00	0,298
462,50	0,297
465,00	0,299
467,50	0,301
470,00	0,306
472,50	0,308
475,00	0,308
477,50	0,312
480,00	0,318
482,50	0,325
485,00	0,332
487,50	0,340
490,00	0,348
492,50	0,358
495,00	0,371
497,50	0,384
500,00	0,396
502,50	0,411
505,00	0,424
507,50	0,440
510,00	0,450
512,50	0,460
515,00	0,473
517,50	0,481
520,00	0,486
522,50	0,490
525,00	0,494
527,50	0,495
530,00	0,490
532,50	0,487
535,00	0,485
537,50	0,483
540,00	0,473
542,50	0,466
545,00	0,461
547,50	0,454
550,00	0,444
552,50	0,435
555,00	0,426
557,50	0,413
560,00	0,404
562,50	0,395
565,00	0,383
567,50	0,373
570,00	0,364
572,50	0,351
575,00	0,338
577,50	0,329
580,00	0,320
582,50	0,307
585,00	0,297
587,50	0,289
590,00	0,280
592,50	0,271
595,00	0,260
597,50	0,251
600,00	0,244
602,50	0,236
605,00	0,226
607,50	0,218
610,00	0,214
612,50	0,209
615,00	0,200
617,50	0,193
620,00	0,189
622,50	0,183
625,00	0,178
627,50	0,174
630,00	0,165
632,50	0,161
635,00	0,157
637,50	0,152
640,00	0,149
642,50	0,146
645,00	0,143
647,50	0,139
650,00	0,134
652,50	0,131
655,00	0,129
657,50	0,124
660,00	0,122
662,50	0,120
665,00	0,116
667,50	0,113
670,00	0,111
672,50	0,109
675,00	0,109
677,50	0,107
680,00	0,103
682,50	0,100
685,00	0,100
687,50	0,099
690,00	0,098
692,50	0,095
695,00	0,094
697,50	0,091
700,00	0,089
702,50	0,086
705,00	0,085
707,50	0,085
710,00	0,083
712,50	0,082
715,00	0,082
717,50	0,082
720,00	0,078
722,50	0,079
725,00	0,079
727,50	0,076
730,00	0,073
732,50	0,073
735,00	0,072
737,50	0,070
740,00	0,069
742,50	0,070
745,00	0,071
747,50	0,067
750,00	0,065
752,50	0,070
755,00	0,065
757,50	0,064
760,00	0,065
762,50	0,065
765,00	0,063
767,50	0,061
770,00	0,063
772,50	0,066
775,00	0,063
777,50	0,060
780,00	0,058
782,50	0,054
785,00	0,054
787,50	0,056
790,00	0,057
792,50	0,058
795,00	0,055
797,50	0,056
800,00	0,056