Folder: Sintesis_Nanoparticulas_Oro/Espectro Uv-Vis/oro/6

Note: Espectro Uv-Vis/oro/6/ambos.txt
molaridad,lambda máx,absorbancia,área
3.14E-04,520.5,0.381,16.319
3.26E-04,540.5,0.694,28.317
3.22E-04,524.5,0.421,19.442

Note: README.md
# Sintesis_Nanoparticulas_Oro

File: 3.22e-4.txt
"3.22e-4 - Dataset 211612"
"Wavelength nm."	"Abs."
200,00	3,457
202,50	3,457
205,00	3,804
207,50	4,273
210,00	2,936
212,50	3,044
215,00	2,607
217,50	1,716
220,00	3,195
222,50	2,836
225,00	3,260
227,50	3,559
230,00	3,086
232,50	3,439
235,00	1,945
237,50	2,766
240,00	2,511
242,50	1,763
245,00	0,943
247,50	0,674
250,00	0,691
252,50	0,040
255,00	1,643
257,50	2,851
260,00	2,067
262,50	1,489
265,00	1,244
267,50	1,618
270,00	1,333
272,50	0,852
275,00	2,825
277,50	1,740
280,00	0,966
282,50	0,828
285,00	0,317
287,50	0,371
290,00	0,371
292,50	0,363
295,00	0,360
297,50	0,357
300,00	0,351
302,50	0,345
305,00	0,342
307,50	0,337
310,00	0,332
312,50	0,328
315,00	0,324
317,50	0,320
320,00	0,316
322,50	0,312
325,00	0,309
327,50	0,306
330,00	0,303
332,50	0,301
335,00	0,298
337,50	0,296
340,00	0,294
342,50	0,293
345,00	0,292
347,50	0,290
350,00	0,289
352,50	0,289
355,00	0,288
357,50	0,287
360,00	0,286
362,50	0,285
365,00	0,284
367,50	0,283
370,00	0,282
372,50	0,281
375,00	0,279
377,50	0,278
380,00	0,276
382,50	0,275
385,00	0,273
387,50	0,271
390,00	0,270
392,50	0,268
395,00	0,266
397,50	0,264
400,00	0,263
402,50	0,262
405,00	0,260
407,50	0,259
410,00	0,258
412,50	0,256
415,00	0,255
417,50	0,254
420,00	0,254
422,50	0,253
425,00	0,252
427,50	0,251
430,00	0,251
432,50	0,250
435,00	0,250
437,50	0,249
440,00	0,249
442,50	0,249
445,00	0,249
447,50	0,249
450,00	0,250
452,50	0,250
455,00	0,251
457,50	0,252
460,00	0,253
462,50	0,254
465,00	0,256
467,50	0,258
470,00	0,260
472,50	0,263
475,00	0,267
477,50	0,271
480,00	0,275
482,50	0,281
485,00	0,287
487,50	0,295
490,00	0,303
492,50	0,313
495,00	0,323
497,50	0,334
500,00	0,345
502,50	0,357
505,00	0,368
507,50	0,379
510,00	0,390
512,50	0,399
515,00	0,407
517,50	0,413
520,00	0,417
522,50	0,420
525,00	0,421
527,50	0,419
530,00	0,417
532,50	0,413
535,00	0,408
537,50	0,401
540,00	0,394
542,50	0,385
545,00	0,376
547,50	0,366
550,00	0,356
552,50	0,345
555,00	0,334
557,50	0,323
560,00	0,311
562,50	0,299
565,00	0,288
567,50	0,276
570,00	0,264
572,50	0,253
575,00	0,243
577,50	0,233
580,00	0,223
582,50	0,213
585,00	0,203
587,50	0,194
590,00	0,185
592,50	0,176
595,00	0,168
597,50	0,160
600,00	0,153
602,50	0,146
605,00	0,140
607,50	0,134
610,00	0,128
612,50	0,123
615,00	0,118
617,50	0,113
620,00	0,108
622,50	0,104
625,00	0,100
627,50	0,096
630,00	0,092
632,50	0,089
635,00	0,085
637,50	0,082
640,00	0,079
642,50	0,077
645,00	0,074
647,50	0,072
650,00	0,070
652,50	0,067
655,00	0,065
657,50	0,063
660,00	0,061
662,50	0,059
665,00	0,058
667,50	0,057
670,00	0,055
672,50	0,054
675,00	0,053
677,50	0,051
680,00	0,050
682,50	0,049
685,00	0,048
687,50	0,047
690,00	0,046
692,50	0,045
695,00	0,044
697,50	0,043
700,00	0,042
702,50	0,041
705,00	0,041
707,50	0,040
710,00	0,039
712,50	0,039
715,00	0,038
717,50	0,037
720,00	0,037
722,50	0,036
725,00	0,035
727,50	0,035
730,00	0,035
732,50	0,034
735,00	0,033
737,50	0,033
740,00	0,032
742,50	0,032
745,00	0,032
747,50	0,031
750,00	0,031
752,50	0,030
755,00	0,030
757,50	0,030
760,00	0,029
762,50	0,029
765,00	0,029
767,50	0,028
770,00	0,028
772,50	0,027
775,00	0,027
777,50	0,026
780,00	0,026
782,50	0,025
785,00	0,025
787,50	0,025
790,00	0,025
792,50	0,025
795,00	0,025
797,50	0,025
800,00	0,025

File: 3.26e-4.txt
"3.86e-4 - Dataset 225149"
"Wavelength nm."	"Abs."
200,00	0,598
202,50	0,598
205,00	0,596
207,50	0,593
210,00	0,589
212,50	0,586
215,00	0,583
217,50	0,580
220,00	0,577
222,50	0,575
225,00	0,572
227,50	0,570
230,00	0,568
232,50	0,568
235,00	0,567
237,50	0,568
240,00	0,569
242,50	0,571
245,00	0,574
247,50	0,577
250,00	0,580
252,50	0,584
255,00	0,586
257,50	0,588
260,00	0,590
262,50	0,591
265,00	0,591
267,50	0,590
270,00	0,588
272,50	0,584
275,00	0,580
277,50	0,575
280,00	0,569
282,50	0,563
285,00	0,557
287,50	0,551
290,00	0,532
292,50	0,524
295,00	0,530
297,50	0,522
300,00	0,513
302,50	0,511
305,00	0,509
307,50	0,501
310,00	0,501
312,50	0,492
315,00	0,481
317,50	0,477
320,00	0,476
322,50	0,466
325,00	0,454
327,50	0,449
330,00	0,449
332,50	0,442
335,00	0,444
337,50	0,442
340,00	0,430
342,50	0,427
345,00	0,420
347,50	0,419
350,00	0,421
352,50	0,419
355,00	0,417
357,50	0,416
360,00	0,415
362,50	0,416
365,00	0,420
367,50	0,419
370,00	0,417
372,50	0,412
375,00	0,410
377,50	0,408
380,00	0,408
382,50	0,407
385,00	0,400
387,50	0,398
390,00	0,395
392,50	0,398
395,00	0,398
397,50	0,394
400,00	0,391
402,50	0,387
405,00	0,388
407,50	0,384
410,00	0,378
412,50	0,377
415,00	0,378
417,50	0,375
420,00	0,371
422,50	0,368
425,00	0,367
427,50	0,366
430,00	0,365
432,50	0,362
435,00	0,361
437,50	0,361
440,00	0,358
442,50	0,359
445,00	0,358
447,50	0,357
450,00	0,356
452,50	0,355
455,00	0,357
457,50	0,355
460,00	0,355
462,50	0,355
465,00	0,355
467,50	0,358
470,00	0,361
472,50	0,363
475,00	0,365
477,50	0,368
480,00	0,372
482,50	0,378
485,00	0,386
487,50	0,395
490,00	0,406
492,50	0,421
495,00	0,436
497,50	0,451
500,00	0,471
502,50	0,492
505,00	0,512
507,50	0,533
510,00	0,555
512,50	0,580
515,00	0,601
517,50	0,621
520,00	0,640
522,50	0,655
525,00	0,667
527,50	0,676
530,00	0,685
532,50	0,687
535,00	0,688
537,50	0,693
540,00	0,694
542,50	0,691
545,00	0,685
547,50	0,678
550,00	0,667
552,50	0,656
555,00	0,645
557,50	0,634
560,00	0,619
562,50	0,602
565,00	0,582
567,50	0,564
570,00	0,547
572,50	0,524
575,00	0,504
577,50	0,485
580,00	0,464
582,50	0,444
585,00	0,423
587,50	0,403
590,00	0,383
592,50	0,364
595,00	0,346
597,50	0,326
600,00	0,310
602,50	0,293
605,00	0,277
607,50	0,264
610,00	0,250
612,50	0,236
615,00	0,224
617,50	0,210
620,00	0,197
622,50	0,189
625,00	0,178
627,50	0,168
630,00	0,160
632,50	0,154
635,00	0,144
637,50	0,136
640,00	0,129
642,50	0,123
645,00	0,116
647,50	0,110
650,00	0,103
652,50	0,097
655,00	0,094
657,50	0,090
660,00	0,087
662,50	0,084
665,00	0,079
667,50	0,074
670,00	0,071
672,50	0,068
675,00	0,066
677,50	0,063
680,00	0,061
682,50	0,058
685,00	0,055
687,50	0,055
690,00	0,052
692,50	0,048
695,00	0,045
697,50	0,042
700,00	0,041
702,50	0,043
705,00	0,041
707,50	0,039
710,00	0,037
712,50	0,038
715,00	0,038
717,50	0,034
720,00	0,033
722,50	0,031
725,00	0,026
727,50	0,029
730,00	0,032
732,50	0,031
735,00	0,031
737,50	0,025
740,00	0,022
742,50	0,025
745,00	0,022
747,50	0,023
750,00	0,024
752,50	0,019
755,00	0,022
757,50	0,024
760,00	0,021
762,50	0,021
765,00	0,020
767,50	0,018
770,00	0,020
772,50	0,019
775,00	0,016
777,50	0,014
780,00	0,016
782,50	0,015
785,00	0,014
787,50	0,016
790,00	0,016
792,50	0,018
795,00	0,014
797,50	0,015
800,00	0,015