Folder: Sintesis_Nanoparticulas_Oro/Espectro Uv-Vis/oro/7

Note: Espectro Uv-Vis/oro/7/ambos.txt
molaridad,lambda máx,absorbancia,área
2.80E-04,523.5,0.294,9.824
2.55E-04,517,0.295,9.072
2.74E-04,520,0.357,14.118

Note: README.md
# Sintesis_Nanoparticulas_Oro

File: 2.5e-4.txt
"2.5e-4 - Dataset 224745"
"Wavelength nm."	"Abs."
200,00	4,772
202,50	4,772
205,00	4,363
207,50	1,919
210,00	2,299
212,50	2,718
215,00	2,537
217,50	2,883
220,00	1,884
222,50	1,715
225,00	2,514
227,50	1,841
230,00	1,725
232,50	1,741
235,00	0,816
237,50	0,211
240,00	1,449
242,50	2,377
245,00	1,475
247,50	1,154
250,00	0,597
252,50	0,096
255,00	0,637
257,50	2,046
260,00	1,712
262,50	0,407
265,00	1,178
267,50	0,821
270,00	0,211
272,50	1,260
275,00	0,118
277,50	-0,424
280,00	0,250
282,50	0,336
285,00	0,287
287,50	0,226
290,00	1,832
292,50	3,269
295,00	0,948
297,50	0,144
300,00	0,287
302,50	0,293
305,00	0,291
307,50	0,265
310,00	0,274
312,50	0,284
315,00	0,274
317,50	0,256
320,00	0,249
322,50	0,253
325,00	0,257
327,50	0,247
330,00	0,247
332,50	0,249
335,00	0,243
337,50	0,236
340,00	0,237
342,50	0,236
345,00	0,240
347,50	0,240
350,00	0,238
352,50	0,237
355,00	0,238
357,50	0,235
360,00	0,234
362,50	0,233
365,00	0,232
367,50	0,230
370,00	0,230
372,50	0,228
375,00	0,225
377,50	0,222
380,00	0,220
382,50	0,218
385,00	0,221
387,50	0,220
390,00	0,216
392,50	0,214
395,00	0,213
397,50	0,214
400,00	0,210
402,50	0,207
405,00	0,209
407,50	0,211
410,00	0,211
412,50	0,207
415,00	0,206
417,50	0,205
420,00	0,207
422,50	0,206
425,00	0,202
427,50	0,204
430,00	0,204
432,50	0,204
435,00	0,204
437,50	0,204
440,00	0,204
442,50	0,202
445,00	0,203
447,50	0,205
450,00	0,206
452,50	0,207
455,00	0,209
457,50	0,208
460,00	0,210
462,50	0,215
465,00	0,215
467,50	0,219
470,00	0,223
472,50	0,225
475,00	0,229
477,50	0,233
480,00	0,239
482,50	0,244
485,00	0,251
487,50	0,259
490,00	0,265
492,50	0,275
495,00	0,286
497,50	0,294
500,00	0,303
502,50	0,313
505,00	0,324
507,50	0,332
510,00	0,335
512,50	0,341
515,00	0,345
517,50	0,346
520,00	0,343
522,50	0,337
525,00	0,333
527,50	0,325
530,00	0,314
532,50	0,301
535,00	0,287
537,50	0,274
540,00	0,258
542,50	0,241
545,00	0,227
547,50	0,213
550,00	0,197
552,50	0,181
555,00	0,170
557,50	0,160
560,00	0,147
562,50	0,137
565,00	0,128
567,50	0,118
570,00	0,110
572,50	0,102
575,00	0,096
577,50	0,090
580,00	0,083
582,50	0,078
585,00	0,074
587,50	0,069
590,00	0,065
592,50	0,061
595,00	0,057
597,50	0,054
600,00	0,051
602,50	0,048
605,00	0,044
607,50	0,042
610,00	0,040
612,50	0,037
615,00	0,036
617,50	0,035
620,00	0,033
622,50	0,031
625,00	0,031
627,50	0,030
630,00	0,027
632,50	0,026
635,00	0,026
637,50	0,024
640,00	0,022
642,50	0,020
645,00	0,021
647,50	0,020
650,00	0,020
652,50	0,020
655,00	0,019
657,50	0,019
660,00	0,018
662,50	0,018
665,00	0,016
667,50	0,014
670,00	0,016
672,50	0,016
675,00	0,017
677,50	0,015
680,00	0,013
682,50	0,015
685,00	0,014
687,50	0,011
690,00	0,009
692,50	0,010
695,00	0,012
697,50	0,008
700,00	0,008
702,50	0,012
705,00	0,013
707,50	0,012
710,00	0,010
712,50	0,009
715,00	0,010
717,50	0,009
720,00	0,010
722,50	0,011
725,00	0,008
727,50	0,009
730,00	0,010
732,50	0,008
735,00	0,008
737,50	0,011
740,00	0,009
742,50	0,007
745,00	0,008
747,50	0,006
750,00	0,004
752,50	0,007
755,00	0,005
757,50	0,007
760,00	0,005
762,50	0,001
765,00	0,004
767,50	0,004
770,00	0,007
772,50	0,011
775,00	0,010
777,50	0,007
780,00	0,009
782,50	0,010
785,00	0,011
787,50	0,010
790,00	0,007
792,50	0,005
795,00	0,001
797,50	0,001
800,00	0,001

File: 2.8e-4.txt
"2.8e-4 - Dataset 223848"
"Wavelength nm."	"Abs."
200,00	0,876
202,50	0,876
205,00	1,199
207,50	1,564
210,00	1,505
212,50	1,539
215,00	0,872
217,50	0,332
220,00	0,825
222,50	2,260
225,00	1,272
227,50	0,324
230,00	2,949
232,50	2,510
235,00	0,492
237,50	1,001
240,00	0,485
242,50	2,123
245,00	2,032
247,50	0,519
250,00	1,099
252,50	0,734
255,00	0,039
257,50	0,185
260,00	1,660
262,50	1,858
265,00	1,387
267,50	1,881
270,00	1,800
272,50	1,795
275,00	1,306
277,50	0,273
280,00	0,281
282,50	0,251
285,00	0,318
287,50	0,316
290,00	0,240
292,50	0,253
295,00	0,334
297,50	0,276
300,00	0,272
302,50	0,257
305,00	0,257
307,50	0,256
310,00	0,244
312,50	0,240
315,00	0,247
317,50	0,244
320,00	0,232
322,50	0,239
325,00	0,242
327,50	0,231
330,00	0,228
332,50	0,227
335,00	0,228
337,50	0,226
340,00	0,223
342,50	0,227
345,00	0,220
347,50	0,218
350,00	0,224
352,50	0,222
355,00	0,216
357,50	0,214
360,00	0,213
362,50	0,210
365,00	0,209
367,50	0,209
370,00	0,207
372,50	0,204
375,00	0,204
377,50	0,203
380,00	0,203
382,50	0,203
385,00	0,200
387,50	0,199
390,00	0,199
392,50	0,201
395,00	0,197
397,50	0,194
400,00	0,192
402,50	0,189
405,00	0,190
407,50	0,188
410,00	0,188
412,50	0,189
415,00	0,188
417,50	0,188
420,00	0,188
422,50	0,186
425,00	0,187
427,50	0,188
430,00	0,185
432,50	0,182
435,00	0,184
437,50	0,185
440,00	0,184
442,50	0,184
445,00	0,182
447,50	0,184
450,00	0,185
452,50	0,185
455,00	0,185
457,50	0,186
460,00	0,185
462,50	0,188
465,00	0,192
467,50	0,192
470,00	0,195
472,50	0,196
475,00	0,199
477,50	0,203
480,00	0,206
482,50	0,212
485,00	0,216
487,50	0,221
490,00	0,227
492,50	0,232
495,00	0,240
497,50	0,249
500,00	0,255
502,50	0,261
505,00	0,270
507,50	0,277
510,00	0,282
512,50	0,288
515,00	0,293
517,50	0,293
520,00	0,292
522,50	0,294
525,00	0,292
527,50	0,286
530,00	0,280
532,50	0,273
535,00	0,263
537,50	0,251
540,00	0,241
542,50	0,230
545,00	0,219
547,50	0,207
550,00	0,194
552,50	0,184
555,00	0,173
557,50	0,161
560,00	0,151
562,50	0,142
565,00	0,134
567,50	0,126
570,00	0,119
572,50	0,115
575,00	0,108
577,50	0,101
580,00	0,096
582,50	0,091
585,00	0,086
587,50	0,079
590,00	0,076
592,50	0,075
595,00	0,071
597,50	0,068
600,00	0,064
602,50	0,060
605,00	0,058
607,50	0,058
610,00	0,056
612,50	0,054
615,00	0,052
617,50	0,049
620,00	0,048
622,50	0,047
625,00	0,045
627,50	0,043
630,00	0,043
632,50	0,043
635,00	0,041
637,50	0,039
640,00	0,038
642,50	0,038
645,00	0,037
647,50	0,034
650,00	0,034
652,50	0,032
655,00	0,032
657,50	0,034
660,00	0,031
662,50	0,030
665,00	0,031
667,50	0,030
670,00	0,029
672,50	0,029
675,00	0,029
677,50	0,027
680,00	0,027
682,50	0,027
685,00	0,027
687,50	0,026
690,00	0,025
692,50	0,025
695,00	0,027
697,50	0,026
700,00	0,023
702,50	0,022
705,00	0,026
707,50	0,024
710,00	0,021
712,50	0,023
715,00	0,022
717,50	0,022
720,00	0,026
722,50	0,023
725,00	0,021
727,50	0,024
730,00	0,021
732,50	0,020
735,00	0,022
737,50	0,018
740,00	0,018
742,50	0,023
745,00	0,020
747,50	0,017
750,00	0,019
752,50	0,019
755,00	0,018
757,50	0,021
760,00	0,020
762,50	0,017
765,00	0,017
767,50	0,017
770,00	0,017
772,50	0,019
775,00	0,021
777,50	0,017
780,00	0,017
782,50	0,016
785,00	0,015
787,50	0,019
790,00	0,018
792,50	0,013
795,00	0,020
797,50	0,019
800,00	0,019

File: 2.74e-4.txt
"2.74e-4 - Dataset 211033"
"Wavelength nm."	"Abs."
200,00	4,130
202,50	4,130
205,00	3,758
207,50	2,458
210,00	2,979
212,50	3,162
215,00	2,204
217,50	3,179
220,00	2,138
222,50	2,021
225,00	2,669
227,50	3,397
230,00	3,150
232,50	1,801
235,00	-0,525
237,50	1,225
240,00	4,881
242,50	2,573
245,00	1,072
247,50	3,019
250,00	0,542
252,50	1,384
255,00	4,078
257,50	3,275
260,00	1,106
262,50	3,106
265,00	3,362
267,50	3,055
270,00	3,515
272,50	1,952
275,00	2,398
277,50	1,205
280,00	0,433
282,50	0,351
285,00	0,240
287,50	0,323
290,00	0,319
292,50	0,312
295,00	0,305
297,50	0,303
300,00	0,297
302,50	0,292
305,00	0,291
307,50	0,287
310,00	0,282
312,50	0,279
315,00	0,276
317,50	0,273
320,00	0,269
322,50	0,267
325,00	0,264
327,50	0,262
330,00	0,259
332,50	0,258
335,00	0,256
337,50	0,255
340,00	0,253
342,50	0,252
345,00	0,251
347,50	0,250
350,00	0,249
352,50	0,249
355,00	0,248
357,50	0,247
360,00	0,246
362,50	0,246
365,00	0,245
367,50	0,244
370,00	0,242
372,50	0,241
375,00	0,240
377,50	0,238
380,00	0,237
382,50	0,236
385,00	0,234
387,50	0,233
390,00	0,231
392,50	0,230
395,00	0,229
397,50	0,227
400,00	0,226
402,50	0,225
405,00	0,224
407,50	0,223
410,00	0,222
412,50	0,221
415,00	0,220
417,50	0,219
420,00	0,219
422,50	0,218
425,00	0,217
427,50	0,217
430,00	0,217
432,50	0,217
435,00	0,216
437,50	0,216
440,00	0,216
442,50	0,216
445,00	0,217
447,50	0,217
450,00	0,218
452,50	0,218
455,00	0,219
457,50	0,220
460,00	0,222
462,50	0,223
465,00	0,225
467,50	0,227
470,00	0,230
472,50	0,233
475,00	0,236
477,50	0,240
480,00	0,244
482,50	0,250
485,00	0,256
487,50	0,262
490,00	0,270
492,50	0,278
495,00	0,287
497,50	0,296
500,00	0,306
502,50	0,315
505,00	0,324
507,50	0,333
510,00	0,340
512,50	0,347
515,00	0,352
517,50	0,356
520,00	0,357
522,50	0,356
525,00	0,353
527,50	0,349
530,00	0,342
532,50	0,335
535,00	0,325
537,50	0,315
540,00	0,303
542,50	0,291
545,00	0,279
547,50	0,266
550,00	0,253
552,50	0,241
555,00	0,229
557,50	0,217
560,00	0,205
562,50	0,194
565,00	0,184
567,50	0,174
570,00	0,164
572,50	0,156
575,00	0,148
577,50	0,140
580,00	0,133
582,50	0,127
585,00	0,120
587,50	0,114
590,00	0,109
592,50	0,103
595,00	0,099
597,50	0,094
600,00	0,090
602,50	0,086
605,00	0,083
607,50	0,079
610,00	0,076
612,50	0,073
615,00	0,070
617,50	0,068
620,00	0,065
622,50	0,063
625,00	0,061
627,50	0,059
630,00	0,057
632,50	0,055
635,00	0,054
637,50	0,052
640,00	0,050
642,50	0,049
645,00	0,048
647,50	0,046
650,00	0,045
652,50	0,044
655,00	0,043
657,50	0,042
660,00	0,041
662,50	0,040
665,00	0,039
667,50	0,039
670,00	0,038
672,50	0,037
675,00	0,037
677,50	0,036
680,00	0,036
682,50	0,035
685,00	0,034
687,50	0,034
690,00	0,033
692,50	0,033
695,00	0,032
697,50	0,032
700,00	0,032
702,50	0,031
705,00	0,031
707,50	0,030
710,00	0,030
712,50	0,030
715,00	0,029
717,50	0,029
720,00	0,029
722,50	0,028
725,00	0,028
727,50	0,028
730,00	0,027
732,50	0,027
735,00	0,027
737,50	0,027
740,00	0,026
742,50	0,026
745,00	0,026
747,50	0,026
750,00	0,025
752,50	0,025
755,00	0,025
757,50	0,025
760,00	0,024
762,50	0,024
765,00	0,024
767,50	0,024
770,00	0,024
772,50	0,023
775,00	0,022
777,50	0,022
780,00	0,022
782,50	0,022
785,00	0,022
787,50	0,022
790,00	0,022
792,50	0,022
795,00	0,022
797,50	0,022
800,00	0,022