Folder: Sintesis_Nanoparticulas_Oro/Espectro Uv-Vis/oro/8

Note: Espectro Uv-Vis/oro/8/ambos.txt
molaridad,lambda máx,absorbancia,área
1.73E-04,515.5,0.223,8.244
1.76E-04,517,0.222,5.911
1.8E-04,519,0.252,9.423

Note: README.md
# Sintesis_Nanoparticulas_Oro

File: 1.73e-4.txt
"1.73e-4 - Dataset 223409"
"Wavelength nm."	"Abs."
200,00	0,420
202,50	0,420
205,00	0,683
207,50	1,872
210,00	1,813
212,50	0,622
215,00	0,020
217,50	0,833
220,00	0,440
222,50	0,715
225,00	1,055
227,50	0,118
230,00	2,821
232,50	1,968
235,00	1,737
237,50	2,280
240,00	1,096
242,50	2,169
245,00	1,923
247,50	1,426
250,00	2,268
252,50	2,191
255,00	2,147
257,50	1,111
260,00	2,032
262,50	2,492
265,00	1,895
267,50	2,609
270,00	1,838
272,50	1,544
275,00	1,306
277,50	-0,314
280,00	-0,020
282,50	0,218
285,00	0,264
287,50	0,251
290,00	0,159
292,50	0,047
295,00	0,135
297,50	0,208
300,00	0,205
302,50	0,198
305,00	0,186
307,50	0,177
310,00	0,178
312,50	0,169
315,00	0,176
317,50	0,178
320,00	0,171
322,50	0,174
325,00	0,168
327,50	0,161
330,00	0,157
332,50	0,157
335,00	0,155
337,50	0,153
340,00	0,155
342,50	0,156
345,00	0,153
347,50	0,151
350,00	0,154
352,50	0,155
355,00	0,153
357,50	0,148
360,00	0,149
362,50	0,150
365,00	0,148
367,50	0,148
370,00	0,148
372,50	0,147
375,00	0,143
377,50	0,146
380,00	0,144
382,50	0,143
385,00	0,145
387,50	0,143
390,00	0,139
392,50	0,142
395,00	0,143
397,50	0,140
400,00	0,139
402,50	0,138
405,00	0,139
407,50	0,137
410,00	0,138
412,50	0,139
415,00	0,135
417,50	0,136
420,00	0,137
422,50	0,136
425,00	0,134
427,50	0,134
430,00	0,135
432,50	0,133
435,00	0,133
437,50	0,135
440,00	0,134
442,50	0,135
445,00	0,136
447,50	0,137
450,00	0,135
452,50	0,136
455,00	0,137
457,50	0,137
460,00	0,136
462,50	0,139
465,00	0,141
467,50	0,141
470,00	0,144
472,50	0,145
475,00	0,148
477,50	0,152
480,00	0,154
482,50	0,158
485,00	0,162
487,50	0,164
490,00	0,170
492,50	0,175
495,00	0,179
497,50	0,186
500,00	0,193
502,50	0,199
505,00	0,204
507,50	0,210
510,00	0,212
512,50	0,216
515,00	0,222
517,50	0,221
520,00	0,220
522,50	0,220
525,00	0,218
527,50	0,217
530,00	0,212
532,50	0,205
535,00	0,196
537,50	0,190
540,00	0,182
542,50	0,172
545,00	0,165
547,50	0,155
550,00	0,146
552,50	0,138
555,00	0,129
557,50	0,121
560,00	0,113
562,50	0,104
565,00	0,097
567,50	0,092
570,00	0,086
572,50	0,083
575,00	0,080
577,50	0,074
580,00	0,070
582,50	0,068
585,00	0,064
587,50	0,059
590,00	0,059
592,50	0,057
595,00	0,053
597,50	0,051
600,00	0,047
602,50	0,043
605,00	0,043
607,50	0,043
610,00	0,041
612,50	0,039
615,00	0,039
617,50	0,038
620,00	0,035
622,50	0,035
625,00	0,033
627,50	0,031
630,00	0,033
632,50	0,034
635,00	0,031
637,50	0,029
640,00	0,031
642,50	0,029
645,00	0,025
647,50	0,025
650,00	0,025
652,50	0,023
655,00	0,024
657,50	0,027
660,00	0,024
662,50	0,024
665,00	0,024
667,50	0,023
670,00	0,022
672,50	0,021
675,00	0,023
677,50	0,022
680,00	0,019
682,50	0,019
685,00	0,020
687,50	0,020
690,00	0,018
692,50	0,017
695,00	0,018
697,50	0,016
700,00	0,018
702,50	0,018
705,00	0,018
707,50	0,019
710,00	0,014
712,50	0,015
715,00	0,017
717,50	0,017
720,00	0,019
722,50	0,016
725,00	0,013
727,50	0,015
730,00	0,017
732,50	0,015
735,00	0,014
737,50	0,012
740,00	0,013
742,50	0,017
745,00	0,014
747,50	0,013
750,00	0,012
752,50	0,013
755,00	0,016
757,50	0,015
760,00	0,018
762,50	0,017
765,00	0,012
767,50	0,014
770,00	0,014
772,50	0,011
775,00	0,013
777,50	0,013
780,00	0,012
782,50	0,013
785,00	0,015
787,50	0,017
790,00	0,017
792,50	0,011
795,00	0,013
797,50	0,013
800,00	0,013

File: 1.76e-4.txt
"1.76e-4 - Dataset 224606"
"Wavelength nm."	"Abs."
200,00	3,699
202,50	3,699
205,00	3,449
207,50	2,143
210,00	3,539
212,50	2,356
215,00	2,296
217,50	2,708
220,00	1,052
222,50	0,484
225,00	1,477
227,50	2,208
230,00	2,231
232,50	1,591
235,00	1,595
237,50	1,214
240,00	0,552
242,50	1,029
245,00	0,985
247,50	1,012
250,00	0,825
252,50	0,743
255,00	0,852
257,50	0,662
260,00	1,089
262,50	1,259
265,00	1,786
267,50	0,479
270,00	-0,264
272,50	-0,209
275,00	1,067
277,50	1,618
280,00	0,374
282,50	0,213
285,00	0,191
287,50	0,103
290,00	1,033
292,50	1,514
295,00	0,256
297,50	0,192
300,00	0,177
302,50	0,187
305,00	0,207
307,50	0,195
310,00	0,189
312,50	0,190
315,00	0,185
317,50	0,180
320,00	0,190
322,50	0,178
325,00	0,173
327,50	0,174
330,00	0,176
332,50	0,169
335,00	0,167
337,50	0,171
340,00	0,162
342,50	0,163
345,00	0,166
347,50	0,166
350,00	0,165
352,50	0,166
355,00	0,166
357,50	0,163
360,00	0,159
362,50	0,158
365,00	0,158
367,50	0,157
370,00	0,156
372,50	0,153
375,00	0,152
377,50	0,150
380,00	0,148
382,50	0,150
385,00	0,149
387,50	0,149
390,00	0,149
392,50	0,147
395,00	0,146
397,50	0,145
400,00	0,144
402,50	0,142
405,00	0,144
407,50	0,142
410,00	0,142
412,50	0,143
415,00	0,142
417,50	0,139
420,00	0,139
422,50	0,142
425,00	0,137
427,50	0,138
430,00	0,140
432,50	0,138
435,00	0,138
437,50	0,139
440,00	0,141
442,50	0,140
445,00	0,137
447,50	0,138
450,00	0,142
452,50	0,143
455,00	0,143
457,50	0,143
460,00	0,145
462,50	0,147
465,00	0,148
467,50	0,150
470,00	0,152
472,50	0,151
475,00	0,157
477,50	0,161
480,00	0,163
482,50	0,166
485,00	0,171
487,50	0,174
490,00	0,177
492,50	0,183
495,00	0,189
497,50	0,192
500,00	0,197
502,50	0,202
505,00	0,208
507,50	0,213
510,00	0,216
512,50	0,217
515,00	0,220
517,50	0,222
520,00	0,219
522,50	0,216
525,00	0,216
527,50	0,209
530,00	0,201
532,50	0,196
535,00	0,189
537,50	0,179
540,00	0,171
542,50	0,162
545,00	0,152
547,50	0,145
550,00	0,135
552,50	0,125
555,00	0,119
557,50	0,113
560,00	0,103
562,50	0,098
565,00	0,091
567,50	0,085
570,00	0,079
572,50	0,073
575,00	0,069
577,50	0,065
580,00	0,061
582,50	0,058
585,00	0,054
587,50	0,050
590,00	0,048
592,50	0,045
595,00	0,042
597,50	0,039
600,00	0,036
602,50	0,036
605,00	0,034
607,50	0,032
610,00	0,030
612,50	0,028
615,00	0,025
617,50	0,024
620,00	0,023
622,50	0,022
625,00	0,021
627,50	0,021
630,00	0,020
632,50	0,019
635,00	0,018
637,50	0,016
640,00	0,014
642,50	0,014
645,00	0,016
647,50	0,016
650,00	0,013
652,50	0,013
655,00	0,014
657,50	0,014
660,00	0,013
662,50	0,012
665,00	0,010
667,50	0,010
670,00	0,011
672,50	0,011
675,00	0,011
677,50	0,009
680,00	0,008
682,50	0,008
685,00	0,007
687,50	0,006
690,00	0,006
692,50	0,008
695,00	0,007
697,50	0,005
700,00	0,005
702,50	0,007
705,00	0,008
707,50	0,009
710,00	0,006
712,50	0,003
715,00	0,006
717,50	0,007
720,00	0,006
722,50	0,005
725,00	0,006
727,50	0,007
730,00	0,006
732,50	0,004
735,00	0,003
737,50	0,008
740,00	0,007
742,50	0,003
745,00	0,006
747,50	0,005
750,00	0,001
752,50	0,002
755,00	0,002
757,50	0,006
760,00	0,005
762,50	-0,000
765,00	-0,000
767,50	0,006
770,00	0,006
772,50	0,003
775,00	0,002
777,50	0,001
780,00	0,003
782,50	0,010
785,00	0,008
787,50	0,003
790,00	0,005
792,50	0,002
795,00	0,000
797,50	0,001
800,00	0,001