Folder: Sintesis_Nanoparticulas_Oro/Lambda max, Extincion max y Area/oro/1

Note: Lambda max, Extincion max y Area/oro/1/ambos.txt
molaridad,lambda máx,absorbancia,área
7.50E-04,539,0.932,33.467
7.61E-04,558,0.76,20.487
7.66E-04,563,0.844,61.979

Note: README.md
# Sintesis_Nanoparticulas_Oro

File: 7.5e-4.txt
"7.5e-4 - Dataset 225708"
"Wavelength nm."	"Abs."
200,00	2,735
202,50	2,735
205,00	3,625
207,50	2,763
210,00	2,230
212,50	0,704
215,00	0,402
217,50	0,442
220,00	1,627
222,50	2,352
225,00	2,034
227,50	2,469
230,00	1,674
232,50	2,195
235,00	0,688
237,50	-0,021
240,00	-0,080
242,50	1,046
245,00	1,645
247,50	1,969
250,00	2,797
252,50	1,481
255,00	0,971
257,50	0,838
260,00	0,461
262,50	1,223
265,00	3,353
267,50	2,917
270,00	0,821
272,50	0,990
275,00	2,317
277,50	3,307
280,00	1,425
282,50	0,340
285,00	0,645
287,50	0,346
290,00	0,780
292,50	3,013
295,00	2,284
297,50	0,293
300,00	0,665
302,50	0,698
305,00	0,720
307,50	0,660
310,00	0,645
312,50	0,641
315,00	0,648
317,50	0,659
320,00	0,649
322,50	0,640
325,00	0,639
327,50	0,639
330,00	0,633
332,50	0,626
335,00	0,623
337,50	0,609
340,00	0,595
342,50	0,592
345,00	0,595
347,50	0,591
350,00	0,589
352,50	0,596
355,00	0,593
357,50	0,582
360,00	0,585
362,50	0,587
365,00	0,589
367,50	0,587
370,00	0,578
372,50	0,585
375,00	0,585
377,50	0,578
380,00	0,576
382,50	0,575
385,00	0,578
387,50	0,577
390,00	0,571
392,50	0,568
395,00	0,566
397,50	0,563
400,00	0,563
402,50	0,559
405,00	0,555
407,50	0,551
410,00	0,550
412,50	0,548
415,00	0,547
417,50	0,541
420,00	0,538
422,50	0,539
425,00	0,533
427,50	0,531
430,00	0,531
432,50	0,530
435,00	0,526
437,50	0,524
440,00	0,521
442,50	0,516
445,00	0,515
447,50	0,513
450,00	0,512
452,50	0,512
455,00	0,509
457,50	0,505
460,00	0,506
462,50	0,504
465,00	0,503
467,50	0,505
470,00	0,503
472,50	0,503
475,00	0,506
477,50	0,507
480,00	0,511
482,50	0,516
485,00	0,523
487,50	0,531
490,00	0,540
492,50	0,552
495,00	0,566
497,50	0,584
500,00	0,603
502,50	0,624
505,00	0,647
507,50	0,675
510,00	0,702
512,50	0,728
515,00	0,761
517,50	0,788
520,00	0,818
522,50	0,845
525,00	0,867
527,50	0,888
530,00	0,905
532,50	0,916
535,00	0,923
537,50	0,929
540,00	0,932
542,50	0,926
545,00	0,918
547,50	0,907
550,00	0,892
552,50	0,876
555,00	0,854
557,50	0,831
560,00	0,810
562,50	0,788
565,00	0,765
567,50	0,742
570,00	0,717
572,50	0,694
575,00	0,673
577,50	0,651
580,00	0,632
582,50	0,616
585,00	0,598
587,50	0,579
590,00	0,563
592,50	0,551
595,00	0,537
597,50	0,524
600,00	0,513
602,50	0,503
605,00	0,492
607,50	0,483
610,00	0,475
612,50	0,465
615,00	0,459
617,50	0,453
620,00	0,447
622,50	0,438
625,00	0,431
627,50	0,427
630,00	0,422
632,50	0,418
635,00	0,415
637,50	0,411
640,00	0,406
642,50	0,402
645,00	0,400
647,50	0,398
650,00	0,394
652,50	0,388
655,00	0,385
657,50	0,385
660,00	0,383
662,50	0,380
665,00	0,376
667,50	0,375
670,00	0,375
672,50	0,373
675,00	0,373
677,50	0,366
680,00	0,364
682,50	0,363
685,00	0,364
687,50	0,364
690,00	0,361
692,50	0,361
695,00	0,362
697,50	0,355
700,00	0,352
702,50	0,357
705,00	0,356
707,50	0,354
710,00	0,355
712,50	0,354
715,00	0,354
717,50	0,349
720,00	0,349
722,50	0,350
725,00	0,348
727,50	0,350
730,00	0,351
732,50	0,346
735,00	0,346
737,50	0,347
740,00	0,345
742,50	0,344
745,00	0,346
747,50	0,346
750,00	0,341
752,50	0,344
755,00	0,343
757,50	0,341
760,00	0,340
762,50	0,338
765,00	0,336
767,50	0,335
770,00	0,336
772,50	0,336
775,00	0,339
777,50	0,336
780,00	0,336
782,50	0,342
785,00	0,342
787,50	0,337
790,00	0,339
792,50	0,336
795,00	0,332
797,50	0,332
800,00	0,332

File: 7.61e-4.txt
"7.61e-4 - Dataset 211048"
"Wavelength nm."	"Abs."
200,00	1,799
202,50	1,799
205,00	1,397
207,50	2,897
210,00	4,202
212,50	3,198
215,00	3,881
217,50	4,975
220,00	3,487
222,50	2,646
225,00	1,228
227,50	4,048
230,00	4,102
232,50	0,714
235,00	2,261
237,50	4,017
240,00	2,082
242,50	3,311
245,00	4,297
247,50	2,160
250,00	2,725
252,50	1,488
255,00	0,494
257,50	2,823
260,00	4,168
262,50	2,260
265,00	3,162
267,50	4,704
270,00	4,253
272,50	1,502
275,00	1,531
277,50	2,323
280,00	1,352
282,50	0,776
285,00	0,690
287,50	0,757
290,00	1,313
292,50	1,961
295,00	1,580
297,50	0,959
300,00	0,739
302,50	0,701
305,00	0,649
307,50	0,648
310,00	0,666
312,50	0,666
315,00	0,644
317,50	0,641
320,00	0,637
322,50	0,623
325,00	0,634
327,50	0,620
330,00	0,617
332,50	0,623
335,00	0,627
337,50	0,619
340,00	0,612
342,50	0,609
345,00	0,607
347,50	0,606
350,00	0,602
352,50	0,598
355,00	0,595
357,50	0,592
360,00	0,602
362,50	0,606
365,00	0,602
367,50	0,599
370,00	0,601
372,50	0,605
375,00	0,604
377,50	0,599
380,00	0,594
382,50	0,596
385,00	0,595
387,50	0,592
390,00	0,587
392,50	0,588
395,00	0,595
397,50	0,592
400,00	0,589
402,50	0,587
405,00	0,583
407,50	0,580
410,00	0,581
412,50	0,581
415,00	0,577
417,50	0,570
420,00	0,569
422,50	0,570
425,00	0,570
427,50	0,564
430,00	0,564
432,50	0,566
435,00	0,560
437,50	0,553
440,00	0,553
442,50	0,552
445,00	0,548
447,50	0,549
450,00	0,547
452,50	0,544
455,00	0,539
457,50	0,534
460,00	0,533
462,50	0,531
465,00	0,528
467,50	0,526
470,00	0,522
472,50	0,520
475,00	0,518
477,50	0,519
480,00	0,515
482,50	0,514
485,00	0,515
487,50	0,515
490,00	0,519
492,50	0,523
495,00	0,531
497,50	0,541
500,00	0,549
502,50	0,559
505,00	0,571
507,50	0,581
510,00	0,592
512,50	0,608
515,00	0,620
517,50	0,630
520,00	0,644
522,50	0,654
525,00	0,663
527,50	0,677
530,00	0,685
532,50	0,693
535,00	0,703
537,50	0,711
540,00	0,719
542,50	0,725
545,00	0,731
547,50	0,737
550,00	0,743
552,50	0,749
555,00	0,756
557,50	0,760
560,00	0,759
562,50	0,761
565,00	0,766
567,50	0,765
570,00	0,766
572,50	0,770
575,00	0,769
577,50	0,768
580,00	0,768
582,50	0,769
585,00	0,770
587,50	0,768
590,00	0,766
592,50	0,766
595,00	0,766
597,50	0,765
600,00	0,765
602,50	0,766
605,00	0,762
607,50	0,760
610,00	0,762
612,50	0,760
615,00	0,758
617,50	0,757
620,00	0,755
622,50	0,751
625,00	0,751
627,50	0,751
630,00	0,749
632,50	0,747
635,00	0,744
637,50	0,744
640,00	0,744
642,50	0,743
645,00	0,743
647,50	0,738
650,00	0,737
652,50	0,734
655,00	0,733
657,50	0,732
660,00	0,728
662,50	0,725
665,00	0,725
667,50	0,727
670,00	0,724
672,50	0,722
675,00	0,722
677,50	0,720
680,00	0,720
682,50	0,722
685,00	0,719
687,50	0,718
690,00	0,718
692,50	0,718
695,00	0,718
697,50	0,714
700,00	0,711
702,50	0,713
705,00	0,710
707,50	0,709
710,00	0,707
712,50	0,708
715,00	0,710
717,50	0,704
720,00	0,702
722,50	0,705
725,00	0,712
727,50	0,709
730,00	0,701
732,50	0,698
735,00	0,701
737,50	0,705
740,00	0,702
742,50	0,701
745,00	0,697
747,50	0,701
750,00	0,705
752,50	0,699
755,00	0,696
757,50	0,695
760,00	0,691
762,50	0,691
765,00	0,694
767,50	0,696
770,00	0,695
772,50	0,695
775,00	0,692
777,50	0,689
780,00	0,695
782,50	0,692
785,00	0,692
787,50	0,692
790,00	0,692
792,50	0,689
795,00	0,687
797,50	0,687
800,00	0,687