Folder: Sintesis_Nanoparticulas_Oro/Lambda max, Extincion max y Area/oro/10

Note: Lambda max, Extincion max y Area/oro/10/ambos.txt
molaridad,lambda máx,absorbancia,área
1.27E-04,537,0.145,5.938
1.22E-04,528,0.067,1.845
1E-04,519,0.141,5.119

Note: README.md
# Sintesis_Nanoparticulas_Oro

File: 1e-4.txt
"1e-4 - Dataset 224702"
"Wavelength nm."	"Abs."
200,00	2,609
202,50	2,609
205,00	2,820
207,50	1,137
210,00	1,851
212,50	1,908
215,00	2,045
217,50	1,554
220,00	2,110
222,50	1,842
225,00	2,319
227,50	1,679
230,00	0,274
232,50	1,790
235,00	1,429
237,50	0,551
240,00	0,452
242,50	1,931
245,00	1,434
247,50	2,166
250,00	2,783
252,50	2,184
255,00	2,400
257,50	1,287
260,00	1,467
262,50	1,334
265,00	0,868
267,50	0,930
270,00	-0,539
272,50	-0,188
275,00	0,263
277,50	0,910
280,00	0,506
282,50	0,142
285,00	0,083
287,50	0,124
290,00	0,383
292,50	1,051
295,00	0,562
297,50	0,048
300,00	0,113
302,50	0,125
305,00	0,131
307,50	0,112
310,00	0,110
312,50	0,106
315,00	0,111
317,50	0,112
320,00	0,113
322,50	0,108
325,00	0,110
327,50	0,112
330,00	0,110
332,50	0,109
335,00	0,107
337,50	0,104
340,00	0,107
342,50	0,109
345,00	0,106
347,50	0,102
350,00	0,103
352,50	0,104
355,00	0,100
357,50	0,098
360,00	0,098
362,50	0,100
365,00	0,096
367,50	0,099
370,00	0,099
372,50	0,092
375,00	0,094
377,50	0,094
380,00	0,092
382,50	0,091
385,00	0,092
387,50	0,092
390,00	0,092
392,50	0,093
395,00	0,091
397,50	0,091
400,00	0,090
402,50	0,087
405,00	0,087
407,50	0,090
410,00	0,090
412,50	0,089
415,00	0,090
417,50	0,088
420,00	0,088
422,50	0,088
425,00	0,085
427,50	0,085
430,00	0,087
432,50	0,087
435,00	0,087
437,50	0,087
440,00	0,088
442,50	0,087
445,00	0,086
447,50	0,087
450,00	0,087
452,50	0,090
455,00	0,091
457,50	0,088
460,00	0,087
462,50	0,091
465,00	0,091
467,50	0,093
470,00	0,094
472,50	0,094
475,00	0,098
477,50	0,099
480,00	0,101
482,50	0,103
485,00	0,105
487,50	0,109
490,00	0,112
492,50	0,114
495,00	0,117
497,50	0,120
500,00	0,125
502,50	0,127
505,00	0,131
507,50	0,134
510,00	0,135
512,50	0,136
515,00	0,137
517,50	0,140
520,00	0,140
522,50	0,138
525,00	0,138
527,50	0,136
530,00	0,129
532,50	0,126
535,00	0,123
537,50	0,116
540,00	0,110
542,50	0,104
545,00	0,100
547,50	0,094
550,00	0,087
552,50	0,082
555,00	0,077
557,50	0,072
560,00	0,067
562,50	0,063
565,00	0,059
567,50	0,055
570,00	0,050
572,50	0,047
575,00	0,044
577,50	0,040
580,00	0,037
582,50	0,037
585,00	0,035
587,50	0,030
590,00	0,029
592,50	0,030
595,00	0,026
597,50	0,023
600,00	0,025
602,50	0,025
605,00	0,021
607,50	0,019
610,00	0,019
612,50	0,017
615,00	0,017
617,50	0,016
620,00	0,015
622,50	0,014
625,00	0,013
627,50	0,013
630,00	0,011
632,50	0,011
635,00	0,010
637,50	0,010
640,00	0,010
642,50	0,008
645,00	0,010
647,50	0,010
650,00	0,008
652,50	0,010
655,00	0,010
657,50	0,009
660,00	0,009
662,50	0,009
665,00	0,007
667,50	0,007
670,00	0,008
672,50	0,007
675,00	0,007
677,50	0,005
680,00	0,006
682,50	0,006
685,00	0,005
687,50	0,006
690,00	0,003
692,50	0,002
695,00	0,006
697,50	0,004
700,00	0,002
702,50	0,005
705,00	0,005
707,50	0,005
710,00	0,004
712,50	0,003
715,00	0,004
717,50	0,003
720,00	0,001
722,50	0,005
725,00	0,006
727,50	0,004
730,00	0,003
732,50	0,004
735,00	0,002
737,50	0,002
740,00	0,005
742,50	0,002
745,00	0,002
747,50	0,002
750,00	-0,000
752,50	0,004
755,00	0,003
757,50	0,002
760,00	-0,001
762,50	-0,002
765,00	-0,001
767,50	0,001
770,00	0,003
772,50	0,003
775,00	0,003
777,50	-0,000
780,00	0,003
782,50	0,005
785,00	0,004
787,50	0,004
790,00	0,005
792,50	0,000
795,00	-0,002
797,50	-0,001
800,00	-0,001