Folder: Sintesis_Nanoparticulas_Oro/Lambda max, Extincion max y Area/oro/2

Note: README.md
# Sintesis_Nanoparticulas_Oro

File: 5.73e-4.txt
"5.73e-4 - Dataset 210421"
"Wavelength nm."	"Abs."
200,00	2,810
202,50	2,810
205,00	3,330
207,50	4,255
210,00	4,648
212,50	3,551
215,00	2,031
217,50	2,470
220,00	3,313
222,50	4,535
225,00	2,907
227,50	0,980
230,00	1,605
232,50	3,682
235,00	3,398
237,50	2,060
240,00	1,677
242,50	1,677
245,00	1,618
247,50	1,272
250,00	2,258
252,50	3,498
255,00	2,441
257,50	3,556
260,00	3,974
262,50	2,205
265,00	2,061
267,50	2,293
270,00	3,906
272,50	1,867
275,00	0,793
277,50	1,281
280,00	0,965
282,50	0,599
285,00	0,626
287,50	0,329
290,00	1,748
292,50	2,458
295,00	1,018
297,50	0,640
300,00	0,648
302,50	0,617
305,00	0,561
307,50	0,582
310,00	0,550
312,50	0,519
315,00	0,550
317,50	0,544
320,00	0,526
322,50	0,523
325,00	0,510
327,50	0,504
330,00	0,506
332,50	0,506
335,00	0,488
337,50	0,479
340,00	0,487
342,50	0,479
345,00	0,478
347,50	0,485
350,00	0,482
352,50	0,474
355,00	0,475
357,50	0,472
360,00	0,472
362,50	0,473
365,00	0,474
367,50	0,470
370,00	0,464
372,50	0,465
375,00	0,461
377,50	0,458
380,00	0,456
382,50	0,451
385,00	0,448
387,50	0,445
390,00	0,443
392,50	0,444
395,00	0,445
397,50	0,437
400,00	0,433
402,50	0,435
405,00	0,431
407,50	0,424
410,00	0,420
412,50	0,420
415,00	0,418
417,50	0,414
420,00	0,414
422,50	0,413
425,00	0,414
427,50	0,411
430,00	0,410
432,50	0,409
435,00	0,407
437,50	0,404
440,00	0,406
442,50	0,405
445,00	0,403
447,50	0,402
450,00	0,403
452,50	0,403
455,00	0,402
457,50	0,404
460,00	0,409
462,50	0,407
465,00	0,408
467,50	0,413
470,00	0,416
472,50	0,419
475,00	0,425
477,50	0,431
480,00	0,437
482,50	0,445
485,00	0,456
487,50	0,467
490,00	0,482
492,50	0,498
495,00	0,516
497,50	0,538
500,00	0,561
502,50	0,584
505,00	0,607
507,50	0,631
510,00	0,656
512,50	0,683
515,00	0,708
517,50	0,726
520,00	0,744
522,50	0,759
525,00	0,770
527,50	0,784
530,00	0,787
532,50	0,788
535,00	0,790
537,50	0,787
540,00	0,781
542,50	0,771
545,00	0,759
547,50	0,747
550,00	0,730
552,50	0,708
555,00	0,688
557,50	0,665
560,00	0,639
562,50	0,617
565,00	0,591
567,50	0,558
570,00	0,532
572,50	0,508
575,00	0,479
577,50	0,455
580,00	0,428
582,50	0,402
585,00	0,381
587,50	0,359
590,00	0,337
592,50	0,316
595,00	0,294
597,50	0,277
600,00	0,260
602,50	0,244
605,00	0,231
607,50	0,216
610,00	0,202
612,50	0,192
615,00	0,181
617,50	0,170
620,00	0,160
622,50	0,150
625,00	0,142
627,50	0,138
630,00	0,127
632,50	0,118
635,00	0,114
637,50	0,107
640,00	0,100
642,50	0,098
645,00	0,094
647,50	0,087
650,00	0,084
652,50	0,079
655,00	0,076
657,50	0,073
660,00	0,069
662,50	0,065
665,00	0,063
667,50	0,061
670,00	0,060
672,50	0,055
675,00	0,053
677,50	0,053
680,00	0,049
682,50	0,049
685,00	0,046
687,50	0,044
690,00	0,044
692,50	0,041
695,00	0,038
697,50	0,036
700,00	0,035
702,50	0,037
705,00	0,031
707,50	0,031
710,00	0,033
712,50	0,029
715,00	0,028
717,50	0,029
720,00	0,027
722,50	0,026
725,00	0,030
727,50	0,027
730,00	0,025
732,50	0,023
735,00	0,025
737,50	0,024
740,00	0,019
742,50	0,020
745,00	0,018
747,50	0,020
750,00	0,023
752,50	0,023
755,00	0,019
757,50	0,019
760,00	0,018
762,50	0,020
765,00	0,021
767,50	0,015
770,00	0,016
772,50	0,017
775,00	0,015
777,50	0,016
780,00	0,021
782,50	0,020
785,00	0,018
787,50	0,017
790,00	0,020
792,50	0,017
795,00	0,016
797,50	0,016
800,00	0,016

File: 6.15e-4.txt
"6.15e-4 - Dataset 213858"
"Wavelength nm."	"Abs."
200,00	2,706
202,50	2,706
205,00	3,200
207,50	2,313
210,00	2,317
212,50	2,482
215,00	3,307
217,50	4,759
220,00	3,420
222,50	3,209
225,00	2,702
227,50	2,239
230,00	2,857
232,50	3,030
235,00	2,322
237,50	4,557
240,00	2,609
242,50	1,820
245,00	3,554
247,50	2,799
250,00	1,483
252,50	1,741
255,00	4,051
257,50	2,331
260,00	1,724
262,50	0,863
265,00	1,788
267,50	3,523
270,00	3,563
272,50	2,376
275,00	0,632
277,50	1,634
280,00	0,843
282,50	0,541
285,00	0,623
287,50	0,601
290,00	0,599
292,50	0,597
295,00	0,595
297,50	0,590
300,00	0,584
302,50	0,580
305,00	0,576
307,50	0,572
310,00	0,568
312,50	0,564
315,00	0,559
317,50	0,555
320,00	0,549
322,50	0,545
325,00	0,540
327,50	0,534
330,00	0,529
332,50	0,525
335,00	0,521
337,50	0,516
340,00	0,511
342,50	0,507
345,00	0,504
347,50	0,500
350,00	0,498
352,50	0,497
355,00	0,497
357,50	0,496
360,00	0,496
362,50	0,496
365,00	0,496
367,50	0,495
370,00	0,494
372,50	0,493
375,00	0,491
377,50	0,490
380,00	0,489
382,50	0,487
385,00	0,485
387,50	0,483
390,00	0,481
392,50	0,479
395,00	0,477
397,50	0,475
400,00	0,473
402,50	0,470
405,00	0,468
407,50	0,466
410,00	0,463
412,50	0,461
415,00	0,459
417,50	0,457
420,00	0,455
422,50	0,452
425,00	0,450
427,50	0,448
430,00	0,446
432,50	0,444
435,00	0,442
437,50	0,440
440,00	0,438
442,50	0,436
445,00	0,434
447,50	0,432
450,00	0,431
452,50	0,429
455,00	0,428
457,50	0,426
460,00	0,425
462,50	0,424
465,00	0,424
467,50	0,424
470,00	0,424
472,50	0,424
475,00	0,425
477,50	0,427
480,00	0,430
482,50	0,433
485,00	0,438
487,50	0,445
490,00	0,453
492,50	0,464
495,00	0,477
497,50	0,491
500,00	0,507
502,50	0,524
505,00	0,543
507,50	0,562
510,00	0,582
512,50	0,603
515,00	0,624
517,50	0,644
520,00	0,664
522,50	0,682
525,00	0,698
527,50	0,714
530,00	0,728
532,50	0,740
535,00	0,751
537,50	0,760
540,00	0,767
542,50	0,774
545,00	0,779
547,50	0,782
550,00	0,785
552,50	0,786
555,00	0,787
557,50	0,786
560,00	0,784
562,50	0,782
565,00	0,778
567,50	0,774
570,00	0,769
572,50	0,763
575,00	0,757
577,50	0,750
580,00	0,742
582,50	0,734
585,00	0,726
587,50	0,717
590,00	0,707
592,50	0,698
595,00	0,688
597,50	0,679
600,00	0,669
602,50	0,659
605,00	0,649
607,50	0,639
610,00	0,629
612,50	0,619
615,00	0,609
617,50	0,598
620,00	0,588
622,50	0,578
625,00	0,568
627,50	0,559
630,00	0,549
632,50	0,539
635,00	0,529
637,50	0,519
640,00	0,509
642,50	0,499
645,00	0,489
647,50	0,480
650,00	0,470
652,50	0,461
655,00	0,451
657,50	0,442
660,00	0,433
662,50	0,424
665,00	0,415
667,50	0,406
670,00	0,397
672,50	0,389
675,00	0,381
677,50	0,372
680,00	0,364
682,50	0,355
685,00	0,347
687,50	0,339
690,00	0,331
692,50	0,323
695,00	0,315
697,50	0,308
700,00	0,301
702,50	0,293
705,00	0,286
707,50	0,279
710,00	0,272
712,50	0,265
715,00	0,259
717,50	0,252
720,00	0,246
722,50	0,240
725,00	0,233
727,50	0,228
730,00	0,221
732,50	0,216
735,00	0,210
737,50	0,205
740,00	0,200
742,50	0,194
745,00	0,189
747,50	0,184
750,00	0,179
752,50	0,175
755,00	0,170
757,50	0,165
760,00	0,161
762,50	0,157
765,00	0,153
767,50	0,149
770,00	0,145
772,50	0,141
775,00	0,137
777,50	0,134
780,00	0,130
782,50	0,127
785,00	0,124
787,50	0,121
790,00	0,117
792,50	0,115
795,00	0,112
797,50	0,110
800,00	0,110