Folder: Sintesis_Nanoparticulas_Oro/Lambda max, Extincion max y Area/oro/4

Note: README.md
# Sintesis_Nanoparticulas_Oro

File: 4.46e-4.txt
"4.46e-4 - Dataset 224104"
"Wavelength nm."	"Abs."
200,00	1,418
202,50	1,418
205,00	1,903
207,50	2,126
210,00	1,497
212,50	1,691
215,00	0,643
217,50	1,033
220,00	1,406
222,50	1,502
225,00	1,180
227,50	0,976
230,00	3,101
232,50	2,357
235,00	0,612
237,50	1,117
240,00	0,704
242,50	0,474
245,00	0,296
247,50	0,453
250,00	1,382
252,50	1,481
255,00	0,850
257,50	0,533
260,00	1,045
262,50	0,555
265,00	1,224
267,50	2,054
270,00	1,745
272,50	1,300
275,00	1,108
277,50	0,466
280,00	0,410
282,50	0,545
285,00	0,598
287,50	0,568
290,00	0,469
292,50	0,412
295,00	0,527
297,50	0,542
300,00	0,524
302,50	0,506
305,00	0,509
307,50	0,509
310,00	0,491
312,50	0,480
315,00	0,475
317,50	0,468
320,00	0,456
322,50	0,458
325,00	0,455
327,50	0,442
330,00	0,435
332,50	0,425
335,00	0,423
337,50	0,423
340,00	0,418
342,50	0,418
345,00	0,413
347,50	0,409
350,00	0,412
352,50	0,413
355,00	0,406
357,50	0,404
360,00	0,408
362,50	0,402
365,00	0,399
367,50	0,400
370,00	0,397
372,50	0,394
375,00	0,389
377,50	0,391
380,00	0,390
382,50	0,389
385,00	0,386
387,50	0,384
390,00	0,381
392,50	0,380
395,00	0,377
397,50	0,373
400,00	0,372
402,50	0,369
405,00	0,366
407,50	0,364
410,00	0,363
412,50	0,362
415,00	0,359
417,50	0,357
420,00	0,356
422,50	0,354
425,00	0,352
427,50	0,352
430,00	0,350
432,50	0,350
435,00	0,349
437,50	0,348
440,00	0,348
442,50	0,345
445,00	0,344
447,50	0,345
450,00	0,343
452,50	0,346
455,00	0,346
457,50	0,344
460,00	0,346
462,50	0,348
465,00	0,351
467,50	0,353
470,00	0,357
472,50	0,360
475,00	0,364
477,50	0,372
480,00	0,376
482,50	0,384
485,00	0,393
487,50	0,402
490,00	0,415
492,50	0,429
495,00	0,446
497,50	0,463
500,00	0,482
502,50	0,503
505,00	0,522
507,50	0,543
510,00	0,564
512,50	0,583
515,00	0,597
517,50	0,611
520,00	0,623
522,50	0,631
525,00	0,636
527,50	0,638
530,00	0,638
532,50	0,633
535,00	0,626
537,50	0,615
540,00	0,602
542,50	0,589
545,00	0,576
547,50	0,558
550,00	0,539
552,50	0,518
555,00	0,496
557,50	0,476
560,00	0,456
562,50	0,432
565,00	0,410
567,50	0,387
570,00	0,366
572,50	0,348
575,00	0,329
577,50	0,310
580,00	0,291
582,50	0,275
585,00	0,260
587,50	0,244
590,00	0,230
592,50	0,219
595,00	0,206
597,50	0,195
600,00	0,184
602,50	0,174
605,00	0,165
607,50	0,157
610,00	0,148
612,50	0,142
615,00	0,136
617,50	0,127
620,00	0,121
622,50	0,118
625,00	0,113
627,50	0,107
630,00	0,105
632,50	0,101
635,00	0,095
637,50	0,092
640,00	0,088
642,50	0,085
645,00	0,081
647,50	0,077
650,00	0,074
652,50	0,070
655,00	0,069
657,50	0,069
660,00	0,064
662,50	0,064
665,00	0,064
667,50	0,060
670,00	0,059
672,50	0,058
675,00	0,055
677,50	0,053
680,00	0,051
682,50	0,051
685,00	0,051
687,50	0,051
690,00	0,048
692,50	0,047
695,00	0,047
697,50	0,044
700,00	0,044
702,50	0,043
705,00	0,042
707,50	0,042
710,00	0,041
712,50	0,039
715,00	0,039
717,50	0,039
720,00	0,042
722,50	0,040
725,00	0,037
727,50	0,037
730,00	0,036
732,50	0,035
735,00	0,034
737,50	0,033
740,00	0,035
742,50	0,035
745,00	0,032
747,50	0,029
750,00	0,032
752,50	0,032
755,00	0,029
757,50	0,033
760,00	0,034
762,50	0,029
765,00	0,027
767,50	0,026
770,00	0,028
772,50	0,028
775,00	0,026
777,50	0,026
780,00	0,025
782,50	0,026
785,00	0,026
787,50	0,030
790,00	0,030
792,50	0,022
795,00	0,025
797,50	0,026
800,00	0,026