Folder: Sintesis_Nanoparticulas_Oro/Lambda max, Extincion max y Area/oro/6

Note: README.md
# Sintesis_Nanoparticulas_Oro

File: 3.14e-4.txt
"3.14e-4 - Dataset 225010"
"Wavelength nm."	"Abs."
200,00	0,523
202,50	0,523
205,00	0,519
207,50	0,511
210,00	0,504
212,50	0,497
215,00	0,489
217,50	0,481
220,00	0,474
222,50	0,468
225,00	0,463
227,50	0,459
230,00	0,455
232,50	0,452
235,00	0,450
237,50	0,449
240,00	0,447
242,50	0,446
245,00	0,445
247,50	0,444
250,00	0,442
252,50	0,440
255,00	0,437
257,50	0,432
260,00	0,427
262,50	0,421
265,00	0,414
267,50	0,407
270,00	0,399
272,50	0,390
275,00	0,381
277,50	0,373
280,00	0,365
282,50	0,357
285,00	0,350
287,50	0,343
290,00	0,332
292,50	0,326
295,00	0,322
297,50	0,312
300,00	0,304
302,50	0,309
305,00	0,302
307,50	0,291
310,00	0,292
312,50	0,288
315,00	0,287
317,50	0,284
320,00	0,279
322,50	0,276
325,00	0,276
327,50	0,272
330,00	0,267
332,50	0,259
335,00	0,259
337,50	0,257
340,00	0,255
342,50	0,257
345,00	0,253
347,50	0,252
350,00	0,249
352,50	0,250
355,00	0,253
357,50	0,251
360,00	0,246
362,50	0,247
365,00	0,247
367,50	0,246
370,00	0,245
372,50	0,242
375,00	0,243
377,50	0,242
380,00	0,238
382,50	0,236
385,00	0,234
387,50	0,230
390,00	0,231
392,50	0,232
395,00	0,232
397,50	0,228
400,00	0,226
402,50	0,225
405,00	0,224
407,50	0,222
410,00	0,219
412,50	0,220
415,00	0,221
417,50	0,218
420,00	0,219
422,50	0,220
425,00	0,217
427,50	0,217
430,00	0,218
432,50	0,216
435,00	0,214
437,50	0,214
440,00	0,215
442,50	0,220
445,00	0,219
447,50	0,216
450,00	0,217
452,50	0,219
455,00	0,221
457,50	0,221
460,00	0,222
462,50	0,224
465,00	0,225
467,50	0,228
470,00	0,230
472,50	0,233
475,00	0,240
477,50	0,243
480,00	0,249
482,50	0,254
485,00	0,260
487,50	0,268
490,00	0,276
492,50	0,285
495,00	0,295
497,50	0,305
500,00	0,317
502,50	0,327
505,00	0,337
507,50	0,349
510,00	0,360
512,50	0,369
515,00	0,372
517,50	0,377
520,00	0,381
522,50	0,381
525,00	0,378
527,50	0,375
530,00	0,370
532,50	0,361
535,00	0,352
537,50	0,343
540,00	0,336
542,50	0,323
545,00	0,307
547,50	0,293
550,00	0,281
552,50	0,268
555,00	0,255
557,50	0,243
560,00	0,228
562,50	0,215
565,00	0,202
567,50	0,190
570,00	0,179
572,50	0,169
575,00	0,160
577,50	0,150
580,00	0,141
582,50	0,132
585,00	0,124
587,50	0,116
590,00	0,110
592,50	0,105
595,00	0,098
597,50	0,091
600,00	0,085
602,50	0,082
605,00	0,078
607,50	0,072
610,00	0,068
612,50	0,064
615,00	0,062
617,50	0,058
620,00	0,056
622,50	0,053
625,00	0,048
627,50	0,046
630,00	0,045
632,50	0,044
635,00	0,040
637,50	0,037
640,00	0,036
642,50	0,034
645,00	0,033
647,50	0,032
650,00	0,030
652,50	0,028
655,00	0,028
657,50	0,027
660,00	0,027
662,50	0,026
665,00	0,023
667,50	0,021
670,00	0,022
672,50	0,022
675,00	0,021
677,50	0,017
680,00	0,017
682,50	0,017
685,00	0,018
687,50	0,018
690,00	0,016
692,50	0,015
695,00	0,014
697,50	0,014
700,00	0,014
702,50	0,012
705,00	0,012
707,50	0,014
710,00	0,012
712,50	0,012
715,00	0,010
717,50	0,009
720,00	0,012
722,50	0,011
725,00	0,006
727,50	0,008
730,00	0,010
732,50	0,011
735,00	0,009
737,50	0,006
740,00	0,009
742,50	0,006
745,00	0,006
747,50	0,010
750,00	0,010
752,50	0,006
755,00	0,005
757,50	0,008
760,00	0,008
762,50	0,007
765,00	0,009
767,50	0,005
770,00	0,005
772,50	0,005
775,00	0,004
777,50	0,004
780,00	0,005
782,50	0,007
785,00	0,007
787,50	0,005
790,00	0,004
792,50	0,005
795,00	0,003
797,50	0,004
800,00	0,004