Folder: Sintesis_Nanoparticulas_Oro/Lambda max, Extincion max y Area/oro/8

Note: README.md
# Sintesis_Nanoparticulas_Oro

File: 1.8e-4.txt
"1.8e-4 - Dataset 210428"
"Wavelength nm."	"Abs."
200,00	5,640
202,50	5,640
205,00	5,285
207,50	2,038
210,00	1,425
212,50	2,156
215,00	0,685
217,50	2,927
220,00	3,718
222,50	1,326
225,00	1,871
227,50	4,827
230,00	3,166
232,50	1,080
235,00	1,222
237,50	3,225
240,00	3,248
242,50	0,680
245,00	0,023
247,50	1,718
250,00	2,743
252,50	0,771
255,00	0,342
257,50	2,183
260,00	2,049
262,50	2,314
265,00	2,352
267,50	2,263
270,00	3,296
272,50	3,602
275,00	1,669
277,50	1,006
280,00	0,736
282,50	-0,170
285,00	0,218
287,50	0,225
290,00	0,217
292,50	0,216
295,00	0,215
297,50	0,214
300,00	0,210
302,50	0,206
305,00	0,205
307,50	0,203
310,00	0,200
312,50	0,198
315,00	0,196
317,50	0,194
320,00	0,192
322,50	0,190
325,00	0,188
327,50	0,186
330,00	0,185
332,50	0,184
335,00	0,184
337,50	0,182
340,00	0,181
342,50	0,180
345,00	0,180
347,50	0,179
350,00	0,178
352,50	0,178
355,00	0,177
357,50	0,176
360,00	0,176
362,50	0,175
365,00	0,174
367,50	0,174
370,00	0,173
372,50	0,172
375,00	0,171
377,50	0,170
380,00	0,169
382,50	0,168
385,00	0,167
387,50	0,166
390,00	0,165
392,50	0,164
395,00	0,163
397,50	0,162
400,00	0,161
402,50	0,161
405,00	0,160
407,50	0,159
410,00	0,158
412,50	0,158
415,00	0,157
417,50	0,157
420,00	0,156
422,50	0,156
425,00	0,155
427,50	0,155
430,00	0,155
432,50	0,155
435,00	0,155
437,50	0,155
440,00	0,155
442,50	0,155
445,00	0,155
447,50	0,156
450,00	0,156
452,50	0,157
455,00	0,157
457,50	0,158
460,00	0,159
462,50	0,160
465,00	0,162
467,50	0,164
470,00	0,165
472,50	0,168
475,00	0,170
477,50	0,173
480,00	0,176
482,50	0,180
485,00	0,184
487,50	0,189
490,00	0,194
492,50	0,200
495,00	0,207
497,50	0,213
500,00	0,220
502,50	0,227
505,00	0,233
507,50	0,238
510,00	0,243
512,50	0,248
515,00	0,251
517,50	0,252
520,00	0,252
522,50	0,250
525,00	0,247
527,50	0,242
530,00	0,235
532,50	0,228
535,00	0,219
537,50	0,209
540,00	0,199
542,50	0,189
545,00	0,178
547,50	0,168
550,00	0,158
552,50	0,148
555,00	0,139
557,50	0,130
560,00	0,122
562,50	0,114
565,00	0,107
567,50	0,101
570,00	0,095
572,50	0,089
575,00	0,084
577,50	0,080
580,00	0,076
582,50	0,072
585,00	0,068
587,50	0,065
590,00	0,062
592,50	0,059
595,00	0,056
597,50	0,054
600,00	0,052
602,50	0,050
605,00	0,048
607,50	0,046
610,00	0,044
612,50	0,043
615,00	0,041
617,50	0,040
620,00	0,039
622,50	0,038
625,00	0,037
627,50	0,036
630,00	0,035
632,50	0,034
635,00	0,033
637,50	0,032
640,00	0,031
642,50	0,030
645,00	0,030
647,50	0,029
650,00	0,029
652,50	0,028
655,00	0,027
657,50	0,027
660,00	0,026
662,50	0,026
665,00	0,025
667,50	0,025
670,00	0,025
672,50	0,025
675,00	0,024
677,50	0,024
680,00	0,024
682,50	0,024
685,00	0,023
687,50	0,023
690,00	0,023
692,50	0,023
695,00	0,022
697,50	0,022
700,00	0,022
702,50	0,022
705,00	0,021
707,50	0,021
710,00	0,021
712,50	0,021
715,00	0,021
717,50	0,021
720,00	0,020
722,50	0,020
725,00	0,020
727,50	0,020
730,00	0,019
732,50	0,019
735,00	0,019
737,50	0,019
740,00	0,019
742,50	0,019
745,00	0,019
747,50	0,018
750,00	0,018
752,50	0,018
755,00	0,018
757,50	0,018
760,00	0,018
762,50	0,018
765,00	0,018
767,50	0,017
770,00	0,017
772,50	0,017
775,00	0,016
777,50	0,016
780,00	0,016
782,50	0,016
785,00	0,016
787,50	0,016
790,00	0,016
792,50	0,016
795,00	0,016
797,50	0,016
800,00	0,016