Folder: Sintesis_Nanoparticulas_Oro/Lambda max, Extincion max y Area/oro/9

Note: Lambda max, Extincion max y Area/oro/9/ambos.txt
molaridad,lambda máx,absorbancia,área
1.60E-04,519,0.203,6.903
1.56E-04,520.5,0.203,7.188
1.62E-04,519,0.212,7.824

Note: README.md
# Sintesis_Nanoparticulas_Oro

File: 1.6e-4.txt
"1.6e-4 - Dataset 224425"
"Wavelength nm."	"Abs."
200,00	1,825
202,50	1,825
205,00	2,515
207,50	2,659
210,00	3,877
212,50	1,478
215,00	1,873
217,50	2,377
220,00	0,516
222,50	0,423
225,00	0,927
227,50	1,081
230,00	1,245
232,50	0,990
235,00	0,240
237,50	0,741
240,00	0,831
242,50	1,089
245,00	0,659
247,50	1,347
250,00	2,411
252,50	1,572
255,00	0,744
257,50	0,525
260,00	0,890
262,50	0,775
265,00	1,289
267,50	1,700
270,00	-0,102
272,50	0,147
275,00	0,305
277,50	-0,003
280,00	0,043
282,50	0,238
285,00	0,173
287,50	0,197
290,00	0,993
292,50	1,857
295,00	0,783
297,50	0,172
300,00	0,161
302,50	0,187
305,00	0,198
307,50	0,168
310,00	0,158
312,50	0,167
315,00	0,160
317,50	0,159
320,00	0,164
322,50	0,156
325,00	0,162
327,50	0,161
330,00	0,156
332,50	0,154
335,00	0,151
337,50	0,154
340,00	0,151
342,50	0,148
345,00	0,148
347,50	0,147
350,00	0,147
352,50	0,150
355,00	0,153
357,50	0,147
360,00	0,144
362,50	0,143
365,00	0,143
367,50	0,144
370,00	0,139
372,50	0,137
375,00	0,138
377,50	0,137
380,00	0,135
382,50	0,135
385,00	0,136
387,50	0,136
390,00	0,135
392,50	0,134
395,00	0,131
397,50	0,132
400,00	0,129
402,50	0,127
405,00	0,130
407,50	0,129
410,00	0,128
412,50	0,129
415,00	0,129
417,50	0,126
420,00	0,127
422,50	0,127
425,00	0,124
427,50	0,124
430,00	0,125
432,50	0,126
435,00	0,126
437,50	0,125
440,00	0,127
442,50	0,126
445,00	0,125
447,50	0,125
450,00	0,128
452,50	0,130
455,00	0,128
457,50	0,126
460,00	0,130
462,50	0,131
465,00	0,133
467,50	0,136
470,00	0,134
472,50	0,137
475,00	0,140
477,50	0,142
480,00	0,145
482,50	0,147
485,00	0,150
487,50	0,155
490,00	0,160
492,50	0,164
495,00	0,170
497,50	0,174
500,00	0,179
502,50	0,184
505,00	0,187
507,50	0,192
510,00	0,194
512,50	0,197
515,00	0,201
517,50	0,202
520,00	0,203
522,50	0,201
525,00	0,198
527,50	0,193
530,00	0,190
532,50	0,183
535,00	0,175
537,50	0,166
540,00	0,159
542,50	0,151
545,00	0,142
547,50	0,136
550,00	0,126
552,50	0,117
555,00	0,111
557,50	0,105
560,00	0,097
562,50	0,091
565,00	0,086
567,50	0,080
570,00	0,073
572,50	0,069
575,00	0,066
577,50	0,061
580,00	0,058
582,50	0,056
585,00	0,053
587,50	0,049
590,00	0,046
592,50	0,045
595,00	0,042
597,50	0,040
600,00	0,037
602,50	0,036
605,00	0,032
607,50	0,030
610,00	0,031
612,50	0,029
615,00	0,028
617,50	0,026
620,00	0,023
622,50	0,024
625,00	0,023
627,50	0,022
630,00	0,022
632,50	0,021
635,00	0,021
637,50	0,020
640,00	0,019
642,50	0,016
645,00	0,018
647,50	0,017
650,00	0,016
652,50	0,017
655,00	0,018
657,50	0,018
660,00	0,016
662,50	0,016
665,00	0,013
667,50	0,012
670,00	0,014
672,50	0,013
675,00	0,015
677,50	0,013
680,00	0,012
682,50	0,012
685,00	0,012
687,50	0,012
690,00	0,010
692,50	0,011
695,00	0,011
697,50	0,009
700,00	0,010
702,50	0,010
705,00	0,011
707,50	0,012
710,00	0,011
712,50	0,009
715,00	0,011
717,50	0,010
720,00	0,009
722,50	0,011
725,00	0,009
727,50	0,011
730,00	0,011
732,50	0,007
735,00	0,009
737,50	0,008
740,00	0,009
742,50	0,012
745,00	0,009
747,50	0,007
750,00	0,008
752,50	0,009
755,00	0,010
757,50	0,012
760,00	0,009
762,50	0,003
765,00	0,005
767,50	0,008
770,00	0,008
772,50	0,009
775,00	0,010
777,50	0,007
780,00	0,007
782,50	0,012
785,00	0,011
787,50	0,010
790,00	0,009
792,50	0,005
795,00	0,008
797,50	0,009
800,00	0,009

File: 1.56e-4.txt
"1.56e-4 - Dataset 213457"
"Wavelength nm."	"Abs."
200,00	2,232
202,50	2,232
205,00	2,239
207,50	3,179
210,00	3,939
212,50	2,074
215,00	0,793
217,50	2,871
220,00	4,707
222,50	2,579
225,00	1,491
227,50	3,788
230,00	3,031
232,50	2,159
235,00	1,333
237,50	0,930
240,00	1,249
242,50	1,757
245,00	0,541
247,50	-0,335
250,00	1,877
252,50	1,661
255,00	2,023
257,50	3,497
260,00	2,186
262,50	2,570
265,00	2,353
267,50	0,677
270,00	1,859
272,50	3,665
275,00	2,120
277,50	0,277
280,00	-0,055
282,50	0,175
285,00	0,172
287,50	0,175
290,00	0,347
292,50	1,675
295,00	1,144
297,50	-0,258
300,00	0,131
302,50	0,173
305,00	0,161
307,50	0,150
310,00	0,156
312,50	0,150
315,00	0,150
317,50	0,150
320,00	0,146
322,50	0,146
325,00	0,144
327,50	0,152
330,00	0,147
332,50	0,141
335,00	0,139
337,50	0,135
340,00	0,138
342,50	0,138
345,00	0,133
347,50	0,137
350,00	0,134
352,50	0,129
355,00	0,132
357,50	0,138
360,00	0,138
362,50	0,135
365,00	0,130
367,50	0,130
370,00	0,130
372,50	0,127
375,00	0,127
377,50	0,128
380,00	0,129
382,50	0,128
385,00	0,124
387,50	0,121
390,00	0,121
392,50	0,119
395,00	0,119
397,50	0,122
400,00	0,122
402,50	0,119
405,00	0,117
407,50	0,119
410,00	0,119
412,50	0,116
415,00	0,116
417,50	0,118
420,00	0,117
422,50	0,116
425,00	0,114
427,50	0,115
430,00	0,116
432,50	0,113
435,00	0,114
437,50	0,116
440,00	0,115
442,50	0,115
445,00	0,114
447,50	0,115
450,00	0,117
452,50	0,118
455,00	0,119
457,50	0,119
460,00	0,119
462,50	0,122
465,00	0,122
467,50	0,122
470,00	0,125
472,50	0,127
475,00	0,127
477,50	0,130
480,00	0,134
482,50	0,136
485,00	0,140
487,50	0,144
490,00	0,148
492,50	0,152
495,00	0,159
497,50	0,165
500,00	0,169
502,50	0,174
505,00	0,181
507,50	0,188
510,00	0,192
512,50	0,196
515,00	0,201
517,50	0,203
520,00	0,203
522,50	0,201
525,00	0,199
527,50	0,195
530,00	0,189
532,50	0,184
535,00	0,177
537,50	0,168
540,00	0,160
542,50	0,154
545,00	0,144
547,50	0,137
550,00	0,128
552,50	0,118
555,00	0,110
557,50	0,102
560,00	0,095
562,50	0,090
565,00	0,084
567,50	0,081
570,00	0,077
572,50	0,070
575,00	0,065
577,50	0,062
580,00	0,059
582,50	0,054
585,00	0,050
587,50	0,049
590,00	0,048
592,50	0,045
595,00	0,042
597,50	0,039
600,00	0,038
602,50	0,036
605,00	0,033
607,50	0,032
610,00	0,032
612,50	0,031
615,00	0,030
617,50	0,026
620,00	0,027
622,50	0,029
625,00	0,024
627,50	0,023
630,00	0,022
632,50	0,021
635,00	0,020
637,50	0,019
640,00	0,018
642,50	0,020
645,00	0,020
647,50	0,018
650,00	0,017
652,50	0,017
655,00	0,016
657,50	0,015
660,00	0,016
662,50	0,016
665,00	0,014
667,50	0,013
670,00	0,013
672,50	0,014
675,00	0,014
677,50	0,013
680,00	0,011
682,50	0,009
685,00	0,011
687,50	0,014
690,00	0,012
692,50	0,012
695,00	0,011
697,50	0,008
700,00	0,008
702,50	0,010
705,00	0,011
707,50	0,011
710,00	0,012
712,50	0,012
715,00	0,010
717,50	0,012
720,00	0,011
722,50	0,012
725,00	0,012
727,50	0,008
730,00	0,008
732,50	0,009
735,00	0,007
737,50	0,008
740,00	0,007
742,50	0,009
745,00	0,010
747,50	0,006
750,00	0,007
752,50	0,013
755,00	0,009
757,50	0,008
760,00	0,011
762,50	0,010
765,00	0,008
767,50	0,007
770,00	0,009
772,50	0,007
775,00	0,009
777,50	0,009
780,00	0,007
782,50	0,008
785,00	0,006
787,50	0,006
790,00	0,010
792,50	0,011
795,00	0,009
797,50	0,008
800,00	0,008

File: 1.62e-4.txt
"1.62e-4 - Dataset 205825"
"Wavelength nm."	"Abs."
200,00	2,712
202,50	2,712
205,00	2,766
207,50	3,718
210,00	2,841
212,50	2,900
215,00	3,041
217,50	3,095
220,00	3,683
222,50	2,367
225,00	2,636
227,50	2,565
230,00	1,791
232,50	2,832
235,00	1,433
237,50	3,570
240,00	3,528
242,50	0,205
245,00	2,086
247,50	3,061
250,00	2,487
252,50	2,698
255,00	2,854
257,50	1,493
260,00	1,038
262,50	4,170
265,00	3,609
267,50	3,800
270,00	2,035
272,50	1,393
275,00	2,639
277,50	0,669
280,00	0,280
282,50	0,156
285,00	0,172
287,50	0,185
290,00	0,186
292,50	0,186
295,00	0,184
297,50	0,183
300,00	0,183
302,50	0,179
305,00	0,177
307,50	0,176
310,00	0,173
312,50	0,171
315,00	0,170
317,50	0,168
320,00	0,166
322,50	0,165
325,00	0,164
327,50	0,162
330,00	0,160
332,50	0,160
335,00	0,160
337,50	0,158
340,00	0,157
342,50	0,156
345,00	0,156
347,50	0,155
350,00	0,155
352,50	0,154
355,00	0,154
357,50	0,153
360,00	0,152
362,50	0,152
365,00	0,151
367,50	0,151
370,00	0,151
372,50	0,150
375,00	0,149
377,50	0,148
380,00	0,148
382,50	0,147
385,00	0,146
387,50	0,145
390,00	0,144
392,50	0,143
395,00	0,142
397,50	0,141
400,00	0,141
402,50	0,140
405,00	0,139
407,50	0,139
410,00	0,138
412,50	0,138
415,00	0,137
417,50	0,137
420,00	0,137
422,50	0,136
425,00	0,136
427,50	0,136
430,00	0,135
432,50	0,135
435,00	0,135
437,50	0,135
440,00	0,135
442,50	0,135
445,00	0,135
447,50	0,136
450,00	0,136
452,50	0,137
455,00	0,137
457,50	0,138
460,00	0,139
462,50	0,139
465,00	0,141
467,50	0,142
470,00	0,144
472,50	0,145
475,00	0,147
477,50	0,150
480,00	0,152
482,50	0,155
485,00	0,159
487,50	0,162
490,00	0,166
492,50	0,171
495,00	0,176
497,50	0,181
500,00	0,186
502,50	0,191
505,00	0,195
507,50	0,200
510,00	0,204
512,50	0,207
515,00	0,210
517,50	0,211
520,00	0,212
522,50	0,211
525,00	0,209
527,50	0,205
530,00	0,201
532,50	0,195
535,00	0,189
537,50	0,182
540,00	0,175
542,50	0,167
545,00	0,158
547,50	0,150
550,00	0,142
552,50	0,134
555,00	0,127
557,50	0,119
560,00	0,112
562,50	0,106
565,00	0,100
567,50	0,094
570,00	0,089
572,50	0,084
575,00	0,080
577,50	0,076
580,00	0,073
582,50	0,069
585,00	0,066
587,50	0,063
590,00	0,060
592,50	0,058
595,00	0,056
597,50	0,054
600,00	0,052
602,50	0,050
605,00	0,048
607,50	0,047
610,00	0,045
612,50	0,044
615,00	0,043
617,50	0,041
620,00	0,040
622,50	0,039
625,00	0,038
627,50	0,037
630,00	0,036
632,50	0,035
635,00	0,035
637,50	0,034
640,00	0,033
642,50	0,033
645,00	0,032
647,50	0,031
650,00	0,031
652,50	0,031
655,00	0,030
657,50	0,029
660,00	0,029
662,50	0,028
665,00	0,028
667,50	0,028
670,00	0,028
672,50	0,027
675,00	0,027
677,50	0,026
680,00	0,026
682,50	0,026
685,00	0,025
687,50	0,025
690,00	0,025
692,50	0,025
695,00	0,024
697,50	0,024
700,00	0,024
702,50	0,024
705,00	0,024
707,50	0,023
710,00	0,023
712,50	0,023
715,00	0,023
717,50	0,022
720,00	0,022
722,50	0,022
725,00	0,022
727,50	0,022
730,00	0,022
732,50	0,021
735,00	0,021
737,50	0,021
740,00	0,021
742,50	0,021
745,00	0,021
747,50	0,021
750,00	0,020
752,50	0,020
755,00	0,020
757,50	0,020
760,00	0,020
762,50	0,020
765,00	0,020
767,50	0,019
770,00	0,019
772,50	0,019
775,00	0,018
777,50	0,018
780,00	0,018
782,50	0,018
785,00	0,018
787,50	0,018
790,00	0,018
792,50	0,018
795,00	0,018
797,50	0,018
800,00	0,018